GPS LATITUDE (degrees), GPS LONGITUDE (degrees), GPS ALTITUDE (m), GPS SPEED (Kmh), GPS ACCURACY (m), GPS ORIENTATION (Â°),GPS SATELLITES IN RANGE, TIME SINCE START (ms), DATE (YYYY-MO-DD HH-MI-SS_SSS), ACCELEROMETER X (m/s²) , ACCELEROMETER Y (m/s²), ACCELEROMETER Z (m/s²), GRAVITY X (m/s²), GRAVITY Y (m/s²), GRAVITY Z (m/s²), GYROSCOPE Yaw (rad/s), GYROSCOPE Pitch (rad/s), GYROSCOPE Roll (rad/s), MAGNETIC FIELD X (Î¼T), MAGNETIC FIELD Y (Î¼T), MAGNETIC FIELD Z (Î¼T), ORIENTATION (Yaw) (Â°), ORIENTATION (Pitch) (Â°), ORIENTATION (Roll ) (Â°)
52.402565,-1.503471,144.59,5.84,4,92.89,18 / 19,4227,2019-09-07 09:13:29:506,-0.9684,-0.0227,9.9665,0.0089,-0.0009,9.8066,-0.0045,-0.1089,-0.0368,-32.06,-30.37,5,312.14,-83.12,-141.8
52.402565,-1.503471,144.59,5.84,4,92.89,18 / 19,4327,2019-09-07 09:13:29:606,-0.3069,-1.3369,9.9218,-0.0087,0.0096,9.8066,0.0214,-0.1285,-0.0056,-31.75,-30.19,5.38,311.38,-83.06,-142.46
52.402565,-1.503471,144.59,5.84,4,92.89,18 / 19,4427,2019-09-07 09:13:29:706,-0.0226,-2.0653,10.0332,0.021,0.0054,9.8066,-0.0368,-0.1373,0.0092,-31.56,-29.94,6.31,311.87,-82.96,-143.69
52.402565,-1.503471,144.59,5.84,4,92.89,18 / 19,4527,2019-09-07 09:13:29:806,0.0734,-1.5827,10.269,-0.0013,0.0182,9.8065,-0.0183,-0.1226,-0.0184,-32.12,-30.5,5.94,310.7,-83.13,-144.9
52.402565,-1.503471,144.59,5.84,4,92.89,18 / 19,4628,2019-09-07 09:13:29:907,0.1095,-0.0062,9.9086,0.0059,0.0273,9.8065,-0.001,-0.0649,-0.0627,-32.25,-29.56,5.81,309.06,-83.28,-146.54
52.402565,-1.503471,144.59,5.84,4,92.89,18 / 19,4727,2019-09-07 09:13:30:006,0.7304,-0.697,10.2125,0.0062,0.0301,9.8066,0.0512,-0.0781,-0.054,-31.37,-30.25,6.69,307.25,-83.6,-150.48
52.402565,-1.503471,144.59,5.84,4,92.89,18 / 19,4827,2019-09-07 09:13:30:106,0.7136,0.2314,9.9019,-0.0004,0.0212,9.8066,0.0156,-0.0156,-0.0292,-31.37,-30.62,5.88,302.57,-83.87,-153.15
52.402565,-1.503471,144.59,5.84,4,92.89,18 / 19,4927,2019-09-07 09:13:30:206,-0.1565,-0.5425,9.7293,0.0003,0.0193,9.8066,-0.0316,-0.0319,-0.0417,-30.87,-29.75,6,299.62,-84.1,-156.31
52.402565,-1.503471,144.59,5.84,4,92.89,18 / 19,5027,2019-09-07 09:13:30:306,0.4673,-0.3767,9.9896,0.0062,0.022,9.8066,-0.0318,0.0814,-0.1118,-30.56,-30.62,5.94,295.43,-84.32,-160.36
52.402565,-1.503471,144.59,5.84,4,92.89,18 / 19,5127,2019-09-07 09:13:30:406,0.0178,0.0381,10.2658,0.0072,0.0311,9.8065,0.0235,0.0124,-0.0468,-30.69,-30.37,5.63,293.92,-84.41,-162.06
52.402565,-1.503471,144.59,5.84,4,92.89,18 / 19,5228,2019-09-07 09:13:30:507,-0.0669,0.6,9.208,0.0206,0.0282,9.8065,-0.0109,0.1046,-0.1181,-30,-30.31,5.94,287.7,-84.52,-168.39
52.402565,-1.503471,144.59,5.84,4,92.89,18 / 19,5327,2019-09-07 09:13:30:606,0.49,2.9401,9.8788,0.0048,0.0538,9.8065,-0.0086,0.251,-0.1865,-30.12,-31.31,6.38,285.03,-84.52,-170.83
52.402565,-1.503471,144.59,5.84,4,92.89,18 / 19,5427,2019-09-07 09:13:30:706,0.7012,1.7526,9.9663,0.0187,0.0034,9.8066,0.018,0.1332,-0.1305,-29.75,-30.75,5.44,279.45,-84.52,-174.43
52.402565,-1.503471,144.59,5.84,4,92.89,18 / 19,5528,2019-09-07 09:13:30:807,-0.1176,-1.0418,9.3239,-0.0229,0.0127,9.8066,-0.124,0.0303,-0.0866,-29.5,-30.81,6.38,279.86,-84.83,-176.44
52.402565,-1.503471,144.59,5.84,4,92.89,18 / 19,5627,2019-09-07 09:13:30:906,-0.12,-0.3955,9.8099,-0.0153,0.0541,9.8064,0.0336,0.1073,-0.1793,-29.56,-30.81,5.13,271.24,-84.95,176.95
52.402565,-1.503471,144.59,5.84,4,92.89,18 / 19,5727,2019-09-07 09:13:31:006,1.7077,4.1391,9.9649,-0.0142,-0.0504,9.8064,-0.0552,0.1,0.1424,-28.81,-30.12,4.56,268.21,-84.89,173.65
52.402565,-1.503471,144.59,5.84,4,92.89,18 / 19,5827,2019-09-07 09:13:31:106,0.697,0.3721,10.341,-0.0059,-0.0011,9.8066,0.059,0.1104,0.0813,-29.12,-30.62,4.75,273.07,-84.8,178.8
52.402565,-1.503471,144.59,5.84,4,92.89,18 / 19,5927,2019-09-07 09:13:31:206,-0.4494,-0.059,10.5849,0.041,0.0083,9.8065,0.0324,0.22,0.0209,-28.75,-30.94,4.69,274.34,-84.69,-179.82
52.402565,-1.503471,144.59,5.84,4,92.89,18 / 19,6027,2019-09-07 09:13:31:306,0.057,0.5705,9.9067,0.0275,0.0186,9.8066,-0.127,0.0591,0.1143,-28.44,-31.12,5.38,271.63,-84.25,177.81
52.402565,-1.503471,144.59,5.84,4,92.89,18 / 20,6127,2019-09-07 09:13:31:406,-1.3815,-0.5014,10.0549,-0.0156,-0.0025,9.8066,-0.1578,-0.0024,0.0608,-29.12,-31.37,5.19,271.89,-84.36,178.08
52.402565,-1.503471,144.59,5.84,4,92.89,18 / 20,6227,2019-09-07 09:13:31:506,-0.9361,-0.5315,10.1496,-0.0114,-0.0114,9.8066,0.1559,0.0099,-0.0249,-28.81,-30.31,5.06,273.03,-84.32,179.07
52.402565,-1.503471,144.59,5.84,4,92.89,18 / 20,6328,2019-09-07 09:13:31:607,0.6583,-0.8199,9.9457,0.0302,-0.0082,9.8065,0.1456,0.0036,-0.0002,-28.62,-30.87,5.81,275.48,-84.31,179.77
52.402565,-1.503471,144.59,5.84,4,92.89,18 / 20,6427,2019-09-07 09:13:31:706,-0.8883,-0.476,10.3413,0.0146,-0.0017,9.8066,-0.16,0.0159,-0.031,-29.06,-31.06,4.75,273.35,-84.16,179.76
52.402565,-1.503471,144.59,5.84,4,92.89,18 / 20,6527,2019-09-07 09:13:31:806,-0.3287,0.1728,9.576,-0.0063,0.0111,9.8066,-0.0454,0.0238,-0.0416,-28.94,-30.75,5.69,274.72,-84.23,179.1
52.402565,-1.503471,144.59,5.84,4,92.89,18 / 20,6627,2019-09-07 09:13:31:906,-0.7283,-0.3232,9.8891,0.0041,0.0138,9.8066,0.0572,-0.0024,-0.0386,-28.81,-30.75,4.94,271.22,-84.2,177.58
52.402565,-1.503471,144.59,5.84,4,92.89,18 / 20,6727,2019-09-07 09:13:32:006,-0.1402,0.0209,9.8757,0.0012,-0.0008,9.8066,0.1072,-0.0326,0.0122,-28.81,-30.62,5.5,271.86,-84.13,176.35
52.402565,-1.503471,144.59,5.84,4,92.89,18 / 20,6827,2019-09-07 09:13:32:106,0.4459,0.5018,10.3166,0.0015,-0.0087,9.8066,-0.0545,0.0534,-0.0298,-28.37,-31.37,5.44,270.7,-84.03,177.12
52.402565,-1.503471,144.59,5.84,4,92.89,18 / 20,6927,2019-09-07 09:13:32:206,0.5861,-0.9184,10.1421,0.0242,-0.0077,9.8066,-0.0636,-0.0787,0.0514,-28.75,-31,5.19,270.99,-83.91,177.66
52.402565,-1.503471,144.59,5.84,4,92.89,18 / 20,7027,2019-09-07 09:13:32:306,-1.1821,-1.7849,10.4708,0.0107,-0.0094,9.8066,0.0872,-0.1226,0.0479,-28.81,-30.87,6.06,273.31,-83.95,178
52.402565,-1.503471,144.59,5.84,4,92.89,18 / 20,7127,2019-09-07 09:13:32:406,0.1713,-0.7896,10.5292,-0.0054,-0.0108,9.8066,0.0779,-0.0692,0.0006,-29.06,-31,5.38,271.93,-83.79,178.73
52.402565,-1.503471,144.59,5.84,4,92.89,18 / 20,7227,2019-09-07 09:13:32:506,-0.2768,-1.3116,10.2099,-0.0109,-0.0125,9.8066,0.0171,-0.0386,-0.0188,-29.31,-30.75,6.56,277.43,-83.69,-179.55
52.402565,-1.503471,144.59,5.84,4,92.89,18 / 20,7327,2019-09-07 09:13:32:606,-0.4753,-0.9641,10.5806,0.0362,-0.0098,9.8065,0.0102,-0.1272,0.0745,-29.37,-30.75,6.31,276.62,-83.4,-178.11
52.402565,-1.503471,144.59,5.84,4,92.89,18 / 20,7427,2019-09-07 09:13:32:706,-1.4767,-0.8914,10.1667,0.031,-0.013,9.8065,0.0597,-0.1134,0.0704,-29.81,-30.56,6.94,278.98,-83,-177.08
52.402565,-1.503471,144.59,5.84,4,92.89,18 / 20,7527,2019-09-07 09:13:32:806,-0.7508,-1.9598,10.579,0.0113,-0.0049,9.8066,0.0823,-0.1245,0.0223,-29.94,-30.75,7.19,279.12,-82.83,-176.77
52.402565,-1.503471,144.59,5.84,4,92.89,18 / 20,7627,2019-09-07 09:13:32:906,-1.3696,-1.3388,10.0823,0.0041,0.0053,9.8066,-0.0123,-0.1266,-0.0102,-30.06,-30.62,7,278.2,-82.57,-177.41
52.402565,-1.503471,144.59,5.84,4,92.89,18 / 20,7727,2019-09-07 09:13:33:006,-0.522,-1.3134,10.1513,0.0214,-0.0115,9.8065,-0.0035,-0.1357,0.0235,-30.12,-30.5,7.69,280.32,-82.37,-177.21
52.402565,-1.503471,144.59,5.84,4,92.89,18 / 20,7827,2019-09-07 09:13:33:106,-1.9267,-1.5303,9.8703,0.0198,-0.0006,9.8066,0.1176,-0.1669,0.0629,-30,-31.31,7.94,280.31,-82.05,-176.64
52.402565,-1.503471,144.59,5.84,4,92.89,18 / 20,7927,2019-09-07 09:13:33:206,-1.796,-1.4035,10.158,0.0027,0.005,9.8066,0.0234,-0.1672,0.0144,-30.69,-30.75,8.69,281.97,-81.91,-176.42
52.402565,-1.503471,144.59,5.84,4,92.89,18 / 20,8027,2019-09-07 09:13:33:306,-2.0593,-0.3018,10.4641,0.0149,-0.0035,9.8066,0.0062,-0.197,0.019,-30.69,-30.81,9.44,281.6,-81.78,-176.66
52.402565,-1.503471,144.59,5.84,4,92.89,18 / 20,8128,2019-09-07 09:13:33:407,-1.6321,-1.6731,10.1682,0.026,-0.0109,9.8065,0.0658,-0.2053,0.0048,-31.19,-30.37,9.25,282.36,-81.46,-175.86
52.402565,-1.503471,144.59,5.84,4,92.89,18 / 20,8228,2019-09-07 09:13:33:507,-1.495,-1.6002,9.9541,0.0269,0.0043,9.8066,0.0785,-0.2,0.0241,-31.5,-30.5,10.19,283.86,-81.13,-175.85
52.402565,-1.503471,144.59,5.84,4,92.89,18 / 20,8327,2019-09-07 09:13:33:606,-0.567,-0.8404,9.9,0.0269,0.0111,9.8065,0.0574,-0.1646,0.0279,-31.31,-30.87,10.19,281.53,-80.76,-177.48
52.402565,-1.503471,144.59,5.84,4,92.89,18 / 20,8427,2019-09-07 09:13:33:706,-0.5775,-0.7206,9.4076,0.0081,-0.0058,9.8066,-0.0656,-0.206,0.0889,-31.12,-30.69,10.94,282.93,-80.66,-177.76
52.402565,-1.503471,144.59,5.84,4,92.89,18 / 20,8528,2019-09-07 09:13:33:807,-1.8306,-1.5382,9.4826,-0.0103,-0.0012,9.8066,-0.0655,-0.1661,0.0644,-31.69,-31.25,11.44,283.37,-80.75,-177.09
52.402565,-1.503471,144.59,5.84,4,92.89,18 / 20,8627,2019-09-07 09:13:33:906,-1.3235,-1.8155,9.0966,-0.0069,-0.0022,9.8066,-0.0271,-0.1262,-0.0074,-31.62,-30.56,10.94,284.07,-80.97,-176.62
52.402565,-1.503471,144.59,5.84,4,92.89,18 / 20,8727,2019-09-07 09:13:34:006,-1.1754,-2.33,9.4813,-0.0051,-0.0027,9.8066,-0.0301,-0.1652,0.0223,-31.94,-29.94,11.94,286.39,-81.14,-176.44
52.402565,-1.503471,144.59,5.84,4,92.89,18 / 20,8827,2019-09-07 09:13:34:106,-0.9703,-1.256,9.849,-0.0068,0.0115,9.8065,-0.028,-0.1666,0.0411,-31.62,-30.69,11.31,284.47,-81.32,-176.56
52.402565,-1.503471,144.59,5.84,4,92.89,18 / 20,8927,2019-09-07 09:13:34:206,-1.4659,-1.0144,9.6041,-0.021,0.0107,9.8066,0.0176,-0.1288,-0.0162,-31.44,-30.19,11.44,284.46,-81.56,-177.4
52.402565,-1.503471,144.59,5.84,4,92.89,18 / 20,9027,2019-09-07 09:13:34:306,-1.0219,-1.5353,9.5593,0.0003,0.0069,9.8066,0.0056,-0.1778,0.0278,-32.62,-30.31,12.06,284.99,-81.67,-177.91
52.402565,-1.503471,144.59,5.84,4,92.89,18 / 20,9127,2019-09-07 09:13:34:406,-1.7832,-0.5385,9.6621,-0.0086,-0.0043,9.8066,-0.0359,-0.1071,0.026,-31.75,-30.5,12.13,285.5,-81.81,-177.92
52.402565,-1.503471,144.59,5.84,4,92.89,18 / 20,9227,2019-09-07 09:13:34:506,-1.2026,-1.1563,9.4769,-0.0206,-0.0052,9.8066,-0.1128,-0.1468,0.0604,-32.12,-29.94,12.94,288.04,-81.91,-177.16
52.402565,-1.503471,144.59,5.84,4,92.89,18 / 20,9328,2019-09-07 09:13:34:607,-1.6798,-1.675,9.9335,-0.0392,0.0176,9.8065,0.1293,-0.1071,-0.0128,-32.75,-30.44,12.5,288.5,-82.23,-176.57
52.402565,-1.503471,144.59,5.84,4,92.89,18 / 20,9427,2019-09-07 09:13:34:706,-0.6347,-0.057,9.8645,0.0206,0.0046,9.8066,0.0391,-0.0924,0.0074,-32.5,-29.87,12.56,289.02,-82.38,-176.63
52.402565,-1.503471,144.59,5.84,4,92.89,18 / 20,9527,2019-09-07 09:13:34:806,-0.5313,-0.5605,9.7004,0.0145,0.0029,9.8065,-0.1033,-0.0927,-0.0568,-32.81,-29.75,13,287.51,-82.37,-177.65
52.402565,-1.503471,144.59,5.84,4,92.89,18 / 20,9627,2019-09-07 09:13:34:906,-0.5827,-0.5459,9.6022,-0.0108,0.0043,9.8066,-0.0866,-0.1558,-0.0025,-32.5,-30.5,12.56,287.38,-82.56,-178.38
52.402565,-1.503471,144.59,5.84,4,92.89,18 / 20,9727,2019-09-07 09:13:35:006,-0.8794,-1.0126,9.5912,-0.013,-0.0022,9.8066,0.0631,-0.1736,-0.0027,-32.19,-29.87,13.19,287.85,-82.56,-177.93
52.402565,-1.503471,144.59,5.84,4,92.89,18 / 20,9827,2019-09-07 09:13:35:106,-1.8889,-0.5331,9.4907,-0.0073,0.0111,9.8066,0.0046,-0.1294,-0.008,-32.37,-29.94,13.69,289.35,-82.56,-178.06
52.402565,-1.503471,144.59,5.84,4,92.89,18 / 20,9927,2019-09-07 09:13:35:206,-1.6122,-0.3646,9.7278,-0.0019,0.0064,9.8066,-0.0079,-0.1343,0.0268,-32.5,-30.19,13.13,286.66,-82.65,-179.16
52.402565,-1.503471,144.59,5.84,4,92.89,18 / 20,10028,2019-09-07 09:13:35:307,-0.5051,-1.1036,9.7851,-0.0053,0.0072,9.8066,-0.0006,-0.1218,-0.0092,-33.12,-29.75,14.38,286.43,-82.76,179.42
52.402565,-1.503471,144.59,5.84,4,92.89,18 / 20,10127,2019-09-07 09:13:35:406,-0.0485,-0.4807,9.8695,-0.0127,0.0204,9.8065,0.0859,-0.0837,-0.0393,-32.31,-30.56,13.63,285.5,-82.85,178.14
52.402565,-1.503471,144.59,5.84,4,92.89,18 / 20,10227,2019-09-07 09:13:35:506,-0.4537,-0.16,9.2489,-0.0037,0.0062,9.8066,-0.06,-0.1018,0.0178,-32.44,-30.31,13.56,283.73,-82.9,176.17
52.402565,-1.503471,144.59,5.84,4,92.89,18 / 20,10327,2019-09-07 09:13:35:606,-1.202,-0.1461,9.0476,-0.0086,0.0001,9.8066,-0.1051,-0.0508,-0.0297,-32.56,-30.62,14.31,283.03,-83.09,176
52.402565,-1.503471,144.59,5.84,4,92.89,18 / 20,10427,2019-09-07 09:13:35:706,-1.4251,-0.4963,9.8043,-0.0272,0.0116,9.8065,-0.0392,-0.0683,0.0011,-32.25,-30.12,13.5,282.89,-83.58,174.74
52.402565,-1.503471,144.59,5.84,4,92.89,18 / 20,10527,2019-09-07 09:13:35:806,-2.0613,-0.5779,10.1568,-0.0229,0.0143,9.8066,-0.1025,-0.105,0.0009,-32.25,-29.69,13.75,282.43,-83.82,174.08
52.402565,-1.503471,144.59,5.84,4,92.89,18 / 20,10628,2019-09-07 09:13:35:907,-1.3202,-0.0967,9.7997,-0.006,0.0243,9.8065,0.123,-0.0835,-0.021,-32.56,-30.25,13.88,281.08,-83.95,173.14
52.402565,-1.503471,144.59,5.84,4,92.89,18 / 20,10727,2019-09-07 09:13:36:006,0.3033,-0.0435,9.0178,-0.0086,0.0135,9.8066,0.0646,-0.0737,-0.0039,-31.75,-30.31,13.81,279.05,-83.98,170.6
52.402565,-1.503471,144.59,5.84,4,92.89,18 / 20,10827,2019-09-07 09:13:36:106,-0.2409,-1.2068,9.9948,0.017,-0.0163,9.8066,-0.0512,-0.1029,0.0455,-32.25,-30.25,14.13,279.05,-83.8,170.76
52.402565,-1.503471,144.59,5.84,4,92.89,18 / 20,10927,2019-09-07 09:13:36:206,-0.6116,-0.8334,9.946,-0.0073,-0.0163,9.8066,0.0201,-0.0621,0.0375,-32.31,-29.69,14.13,280.05,-83.95,171.62
52.402565,-1.503471,144.59,5.84,4,92.89,18 / 20,11028,2019-09-07 09:13:36:307,-0.9896,-0.4687,9.7392,-0.0107,-0.0042,9.8065,-0.1026,-0.0726,0.0356,-32.44,-30.06,14.75,283.1,-84.16,172.9
52.402565,-1.503471,144.59,5.84,4,92.89,18 / 20,11130,2019-09-07 09:13:36:409,-1.9126,-1.1296,9.7761,-0.0186,-0.0137,9.8066,-0.0698,-0.1556,0.1111,-33,-29.56,14.75,284.97,-84.54,174.98
52.402565,-1.503471,144.59,5.84,4,92.89,18 / 20,11227,2019-09-07 09:13:36:506,-1.2238,0,9.6983,-0.0161,0.0002,9.8066,-0.0269,-0.0576,-0.0071,-33.25,-29.44,14.56,287.72,-84.74,177.37
52.402565,-1.503471,144.59,5.84,4,92.89,18 / 20,11327,2019-09-07 09:13:36:606,-1.6074,-0.744,10.0508,0.0088,-0.0125,9.8066,-0.0303,-0.1063,0.0225,-32.75,-28.94,14.69,289.62,-84.83,179.16
52.402565,-1.503471,144.59,5.84,4,92.89,18 / 20,11428,2019-09-07 09:13:36:707,-0.7678,-0.495,9.5268,-0.0091,0.0201,9.8065,-0.0134,-0.1236,-0.0086,-33.44,-29.87,14.63,288.34,-84.85,178.02
52.402565,-1.503471,144.59,5.84,4,92.89,18 / 20,11527,2019-09-07 09:13:36:806,0.0754,-1.2189,9.7412,0.0179,-0.0005,9.8066,-0.0575,-0.0769,-0.0341,-33,-29.37,14.94,286.59,-84.73,176.26
52.402565,-1.503471,144.59,5.84,4,92.89,18 / 20,11627,2019-09-07 09:13:36:906,0.095,-1.4424,9.9407,0.0057,-0.006,9.8066,-0.0345,-0.1557,0.0313,-33,-29.31,15.63,289.07,-84.6,177.33
52.402565,-1.503471,144.59,5.84,4,92.89,18 / 20,11727,2019-09-07 09:13:37:006,-0.9129,-1.5286,9.6748,-0.0071,0.0113,9.8065,0.0053,-0.0779,-0.0011,-33.31,-30,15.75,287.94,-84.68,176.31
52.402565,-1.503471,144.59,5.84,4,92.89,18 / 20,11828,2019-09-07 09:13:37:107,-0.677,-1.0468,9.7007,0.0032,0.004,9.8066,0.0615,-0.1278,0.0237,-32.94,-29.81,15.38,285.86,-84.81,175.62
52.402565,-1.503471,144.59,5.84,4,92.89,18 / 20,11927,2019-09-07 09:13:37:206,-0.2638,-0.5253,9.944,-0.0092,-0.0103,9.8066,-0.0796,-0.1396,0.0648,-33.19,-29.19,15.56,288.15,-84.96,176.15
52.402565,-1.503471,144.59,5.84,4,92.89,18 / 20,12027,2019-09-07 09:13:37:306,-0.2009,0.0663,9.5527,0.0007,0.0139,9.8066,-0.0466,-0.0448,-0.0679,-33.25,-29.31,15.63,289.15,-85.11,177.01
52.402565,-1.503471,144.59,5.84,4,92.89,18 / 20,12127,2019-09-07 09:13:37:406,-0.8059,-1.1865,9.486,0.007,-0.0051,9.8066,-0.0283,-0.1071,-0.0096,-32.81,-29.5,16.19,288.07,-85.2,175.89
52.402565,-1.503471,144.59,5.84,4,92.89,18 / 20,12227,2019-09-07 09:13:37:506,-1.1075,0.2267,9.3866,-0.0394,0.0144,9.8065,-0.1251,-0.0273,-0.0266,-32.81,-29.62,15.94,287.7,-85.1,175.73
52.402565,-1.503471,144.59,5.84,4,92.89,18 / 20,12327,2019-09-07 09:13:37:606,-0.8267,-0.9922,9.608,-0.0233,0.0087,9.8066,0.08,-0.1088,0.0301,-32.94,-29,16,289.12,-85.23,176.88
52.402565,-1.503471,144.59,5.84,4,92.89,18 / 20,12427,2019-09-07 09:13:37:706,-1.6518,-1.2699,10.0412,0.0057,-0.0075,9.8065,0.0161,-0.1617,0.0526,-32.62,-29,16.75,292.07,-85.07,178.46
52.402565,-1.503471,144.59,5.84,4,92.89,18 / 20,12527,2019-09-07 09:13:37:806,-0.6274,-1.5596,10.1677,-0.0212,0.0107,9.8066,0.1187,-0.0731,-0.0996,-33,-29.87,17,291.96,-85.03,178.52
52.402565,-1.503471,144.59,5.84,4,92.89,18 / 20,12628,2019-09-07 09:13:37:907,-0.5606,-0.2044,10.4864,0.0103,-0.0224,9.8066,-0.0208,-0.2286,0.0368,-32.94,-28.75,17.56,289.9,-84.94,175.05
52.402565,-1.503471,144.59,5.84,4,92.89,18 / 20,12727,2019-09-07 09:13:38:006,0.3858,-2.1777,9.1168,-0.0216,-0.021,9.8066,-0.0077,-0.2147,0.0874,-32.87,-28.56,17.81,291.88,-84.84,177.06
52.402565,-1.503471,144.59,5.84,4,92.89,18 / 20,12828,2019-09-07 09:13:38:107,-0.7291,1.092,9.0549,0.0324,-0.0127,9.8065,-0.0993,0.0555,-0.0581,-32.62,-29.31,18.13,291.15,-84.62,176.51
52.402565,-1.503471,144.59,5.84,4,92.89,18 / 20,12927,2019-09-07 09:13:38:206,-1.2726,0.6376,9.6053,0.0343,-0.0035,9.8065,0.0862,-0.066,0.0143,-32.37,-29.12,18.13,291.9,-84.6,176.6
52.402565,-1.503471,144.59,5.84,4,92.89,18 / 20,13027,2019-09-07 09:13:38:306,0.6275,0.6492,10.1664,-0.0334,0.0248,9.8065,-0.0178,0.0706,-0.0717,-33.06,-29.37,18.25,291.16,-84.61,176.52
52.402824,-1.502642,146.99,6.81,3,92.89,18 / 20,13128,2019-09-07 09:13:38:407,-1.413,-0.4485,10.0308,0.004,0.0095,9.8066,-0.0572,-0.0936,0.0476,-32.62,-28.69,19,292.77,-84.82,176.58
52.402824,-1.502642,146.99,6.81,3,92.89,18 / 20,13227,2019-09-07 09:13:38:506,-1.5249,-0.3882,10.0631,-0.0145,-0.0128,9.8066,0.0534,-0.0631,-0.0008,-33.19,-28.62,19.56,295.22,-84.81,177.64
52.402824,-1.502642,146.99,6.81,3,92.89,18 / 20,13327,2019-09-07 09:13:38:606,-0.2102,-1.237,9.6656,-0.0243,0.0043,9.8065,0.1289,-0.1114,0.0328,-33.19,-29.06,19.13,294.4,-84.83,178.15
52.402824,-1.502642,146.99,6.81,3,92.89,18 / 20,13427,2019-09-07 09:13:38:706,-0.817,-1.0134,9.7091,0.0072,-0.0098,9.8065,-0.0412,-0.1247,0.0579,-32.87,-28.37,19.06,294.67,-84.76,178.34
52.402824,-1.502642,146.99,6.81,3,92.89,18 / 20,13528,2019-09-07 09:13:38:807,-0.9233,-0.9625,9.5178,-0.0036,-0.0046,9.8066,-0.0208,-0.1045,0.0092,-32.69,-28.62,19,295.68,-84.78,179.44
52.402824,-1.502642,146.99,6.81,3,92.89,18 / 20,13627,2019-09-07 09:13:38:906,-1.6688,-1.0272,9.7419,-0.0229,0.0211,9.8065,-0.0027,-0.1403,0.029,-33.12,-28.75,19.38,294.78,-85.03,178.37
52.402824,-1.502642,146.99,6.81,3,92.89,18 / 20,13728,2019-09-07 09:13:39:007,0.2638,-0.9328,9.7378,-0.0266,0.0117,9.8066,0.0549,-0.0797,-0.0109,-32.25,-28.37,19.69,297,-85.18,178.27
52.402824,-1.502642,146.99,6.81,3,92.89,18 / 20,13828,2019-09-07 09:13:39:107,-1.5139,-0.7224,10.2259,0.0049,-0.0127,9.8066,0.0228,-0.1017,0.017,-33.31,-29.12,19.5,296.26,-85.2,178.37
52.402824,-1.502642,146.99,6.81,3,92.89,18 / 20,13928,2019-09-07 09:13:39:207,-0.4147,-0.8584,9.4373,-0.0004,0.0064,9.8066,0.0119,-0.0827,-0.0171,-32.19,-28.56,20,297.18,-85.13,178.59
52.402824,-1.502642,146.99,6.81,3,92.89,18 / 20,14028,2019-09-07 09:13:39:307,-0.0204,-0.8294,9.9211,0.0133,-0.0157,9.8066,-0.081,-0.1011,0.0073,-32.19,-28.75,20,296.7,-85.08,178.16
52.402824,-1.502642,146.99,6.81,3,92.89,18 / 20,14128,2019-09-07 09:13:39:407,-0.7078,-0.9823,9.7287,0.0088,-0.0084,9.8066,0.0174,-0.1076,-0.0114,-32.56,-28.25,20.56,298.18,-85,178.96
52.402824,-1.502642,146.99,6.81,3,92.89,18 / 20,14227,2019-09-07 09:13:39:506,-1.1332,-0.6272,9.6417,0.0027,-0.0057,9.8066,-0.0928,-0.0903,0.0031,-32.25,-29,20.94,298.92,-85.04,179.03
52.402824,-1.502642,146.99,6.81,3,92.89,18 / 20,14327,2019-09-07 09:13:39:606,-0.4495,-0.831,10.0964,-0.0113,0.0057,9.8066,0.0846,-0.099,0.0301,-33.12,-27.75,20.88,299.52,-85.16,-179.84
52.402824,-1.502642,146.99,6.81,3,92.89,18 / 20,14427,2019-09-07 09:13:39:706,-0.403,-0.7257,9.6966,-0.0187,0.0152,9.8066,0.0831,-0.097,0.0057,-32.56,-28.31,21.19,299.7,-85.29,-179.76
52.402824,-1.502642,146.99,6.81,3,92.89,18 / 20,14527,2019-09-07 09:13:39:806,0.2437,-0.0126,9.4967,-0.0016,-0.0167,9.8066,-0.0177,-0.1123,0.075,-32.06,-27.87,20.81,300.79,-85.27,-179.42
52.402824,-1.502642,146.99,6.81,3,92.89,18 / 20,14627,2019-09-07 09:13:39:906,-0.9768,-1.7905,9.6155,-0.021,-0.0267,9.8065,-0.0581,-0.1152,0.0827,-33.44,-27.94,21.06,305.55,-85.26,-174.07
52.402824,-1.502642,146.99,6.81,3,92.89,18 / 20,14727,2019-09-07 09:13:40:006,-1.1661,-1.6497,9.9455,-0.0183,-0.0104,9.8066,-0.0046,-0.0522,-0.0045,-32.94,-27.81,20.81,308.9,-85.31,-170.86
52.402824,-1.502642,146.99,6.81,3,92.89,18 / 20,14827,2019-09-07 09:13:40:106,-0.6017,-1.084,10.0147,-0.0075,-0.0199,9.8066,-0.1048,-0.0537,0.0377,-33.62,-27.94,21.19,311.99,-85.38,-167.21
52.402824,-1.502642,146.99,6.81,3,92.89,18 / 20,14927,2019-09-07 09:13:40:206,-0.6777,-0.514,9.9308,-0.0174,0.0006,9.8066,-0.0542,-0.0594,0.0314,-33.12,-27.37,21.44,316.33,-85.45,-163.89
52.402824,-1.502642,146.99,6.81,3,92.89,18 / 20,15027,2019-09-07 09:13:40:306,-0.8447,-1.1755,9.9398,-0.0195,-0.0148,9.8065,0.0627,-0.0937,0.0608,-33.25,-27.25,21.63,321.02,-85.39,-160.6
52.402824,-1.502642,146.99,6.81,3,92.89,18 / 20,15128,2019-09-07 09:13:40:407,-0.4183,-1.5686,9.7921,0.0048,-0.0139,9.8066,0.0996,-0.1058,0.0656,-34.25,-27.06,21.25,321.1,-85.28,-158.5
52.402824,-1.502642,146.99,6.81,3,92.89,18 / 20,15227,2019-09-07 09:13:40:506,-0.2706,-0.892,9.7222,0.0065,-0.0059,9.8066,-0.0223,-0.1055,-0.0001,-33.25,-27.37,21.94,324.54,-85.21,-157.17
52.402824,-1.502642,146.99,6.81,3,92.89,18 / 20,15327,2019-09-07 09:13:40:606,-1.6789,-0.6857,9.9734,0.003,-0.0025,9.8066,-0.0141,-0.1428,0.0312,-33.62,-27.56,21.56,324.55,-85.29,-156.37
52.402824,-1.502642,146.99,6.81,3,92.89,18 / 20,15427,2019-09-07 09:13:40:706,-0.8664,-0.4405,9.1795,0.0434,-0.0117,9.8065,-0.0322,-0.182,-0.0106,-33.5,-27,22.13,323.9,-85.25,-157.79
52.402824,-1.502642,146.99,6.81,3,92.89,18 / 20,15527,2019-09-07 09:13:40:806,-0.9795,-2.1107,8.9257,-0.0409,0.0018,9.8065,-0.041,-0.1853,0.0058,-33.06,-27.25,22.75,325.36,-85.31,-157.63
52.402824,-1.502642,146.99,6.81,3,92.89,18 / 20,15627,2019-09-07 09:13:40:906,0.1891,0.0829,9.6343,-0.0302,-0.0056,9.8065,0.0061,-0.2151,0.1051,-33.69,-27.19,22.69,328.31,-85.37,-154.08
52.402824,-1.502642,146.99,6.81,3,92.89,18 / 20,15727,2019-09-07 09:13:41:006,-1.0364,-2.3113,10.0007,0.0027,-0.001,9.8066,0.0135,-0.2061,-0.0054,-33,-27.25,22.88,330.21,-85.44,-153.07
52.402824,-1.502642,146.99,6.81,3,92.89,18 / 20,15827,2019-09-07 09:13:41:106,-0.8081,-1.1035,9.9979,-0.0074,-0.0108,9.8065,-0.012,-0.2826,0.0451,-33.44,-27.19,23.31,330.47,-85.55,-152.86
52.402824,-1.502642,146.99,6.81,3,92.89,18 / 20,15927,2019-09-07 09:13:41:206,-0.9239,-1.7971,10.2547,0.0231,-0.0282,9.8065,0.0344,-0.2425,0.036,-33.44,-27.31,23.25,331.87,-85.46,-151.5
52.402824,-1.502642,146.99,6.81,3,92.89,18 / 20,16028,2019-09-07 09:13:41:307,-0.0721,-1.2727,9.8789,0.003,-0.019,9.8066,-0.0719,-0.1848,0.0355,-33,-27.12,23.56,333.87,-85.47,-150.76
52.402824,-1.502642,146.99,6.81,3,92.89,18 / 21,16127,2019-09-07 09:13:41:406,-1.2247,-0.7362,10.327,-0.0071,-0.0057,9.8066,-0.0902,-0.1574,0.0174,-33.75,-27.06,23.63,334.71,-85.42,-149.17
52.402824,-1.502642,146.99,6.81,3,92.89,18 / 21,16227,2019-09-07 09:13:41:506,-0.9895,-0.3825,9.6649,-0.023,0.0217,9.8065,-0.1415,-0.0836,-0.0417,-33.44,-27.25,24.81,337.34,-85.44,-148.6
52.402824,-1.502642,146.99,6.81,3,92.89,18 / 21,16328,2019-09-07 09:13:41:607,-0.9783,-0.2308,9.8409,0.0102,-0.011,9.8066,-0.0628,-0.1264,0.0098,-33.44,-27.75,24.31,335.32,-85.34,-149.3
52.402824,-1.502642,146.99,6.81,3,92.89,18 / 21,16427,2019-09-07 09:13:41:706,-1.7812,-0.1407,9.8057,0.0027,0.004,9.8066,-0.0581,-0.1745,0.0513,-33.44,-27.12,24.69,337.04,-85.41,-148.87
52.402824,-1.502642,146.99,6.81,3,92.89,18 / 21,16527,2019-09-07 09:13:41:806,-1.1846,-0.0973,10.0871,-0.0087,0.0028,9.8066,-0.0042,-0.1228,-0.0178,-32.87,-27.31,25.5,339.73,-85.33,-147.4
52.402824,-1.502642,146.99,6.81,3,92.89,18 / 21,16627,2019-09-07 09:13:41:906,-0.8289,-0.6613,9.8466,0.0086,-0.0006,9.8066,-0.0098,-0.1585,0.022,-33.19,-27.94,25.25,338.9,-85.31,-147.04
52.402824,-1.502642,146.99,6.81,3,92.89,18 / 21,16727,2019-09-07 09:13:42:006,-0.9497,-0.5346,9.6913,-0.0057,0.0055,9.8066,0.0461,-0.14,0.016,-32.62,-27.56,25.44,339.21,-85.25,-146.73
52.402824,-1.502642,146.99,6.81,3,92.89,18 / 21,16827,2019-09-07 09:13:42:106,-0.3469,-0.3413,9.8839,-0.0009,-0.0144,9.8066,-0.03,-0.0589,-0.0006,-32.75,-27.31,26.44,340.91,-85.2,-146.25
52.402824,-1.502642,146.99,6.81,3,92.89,18 / 21,16927,2019-09-07 09:13:42:206,-1.1359,-0.8765,9.9454,-0.0064,-0.0124,9.8066,-0.0685,-0.0631,-0.0405,-32.87,-26.87,26.31,343.23,-85.1,-144.03
52.402824,-1.502642,146.99,6.81,3,92.89,18 / 21,17027,2019-09-07 09:13:42:306,-0.6388,-0.4538,10.1874,0.0001,-0.001,9.8066,-0.0207,-0.0914,0.0086,-32.87,-27.75,26.06,344.12,-85.13,-143.17
52.402824,-1.502642,146.99,6.81,3,92.89,17 / 20,17128,2019-09-07 09:13:42:407,-0.9221,-0.5468,10.0226,-0.0187,0.0059,9.8065,0.0438,0.0003,-0.0262,-32.37,-28.12,26.44,345.25,-85.12,-142.95
52.402824,-1.502642,146.99,6.81,3,92.89,17 / 20,17227,2019-09-07 09:13:42:506,-0.6968,-0.454,9.5939,-0.0122,0.0112,9.8066,0.0251,-0.059,0.01,-32.25,-27.81,27.13,347.48,-85.22,-141.95
52.402824,-1.502642,146.99,6.81,3,92.89,17 / 20,17327,2019-09-07 09:13:42:606,-0.2472,-0.072,9.3893,-0.0137,0.0067,9.8066,0.0128,-0.0066,0.0033,-32.5,-28,26.88,347.35,-85.19,-142.06
52.402824,-1.502642,146.99,6.81,3,92.89,17 / 20,17428,2019-09-07 09:13:42:707,-0.6254,-0.1773,9.8389,-0.0122,0.0119,9.8066,0.0575,-0.016,-0.0128,-32.62,-27.31,26.63,348.23,-85.27,-140.41
52.402824,-1.502642,146.99,6.81,3,92.89,17 / 20,17527,2019-09-07 09:13:42:806,-0.4204,-0.4824,10.2773,-0.006,-0.0115,9.8066,0.0119,-0.0674,0.0096,-32.19,-27.5,27,349.44,-85.27,-140.12
52.402824,-1.502642,146.99,6.81,3,92.89,17 / 20,17627,2019-09-07 09:13:42:906,-0.0616,-0.6216,9.5532,0.003,-0.0082,9.8066,0.0088,-0.0036,-0.0345,-32.37,-28.06,26.88,350.08,-85.09,-139.47
52.402824,-1.502642,146.99,6.81,3,92.89,17 / 20,17728,2019-09-07 09:13:43:007,-0.5008,-1.0077,9.8457,-0.0022,-0.001,9.8066,0.0222,-0.0958,0.0187,-32.19,-27.62,27.19,349.84,-85.08,-139.7
52.402824,-1.502642,146.99,6.81,3,92.89,17 / 20,17827,2019-09-07 09:13:43:106,0.0094,0.7775,10.0417,0.0058,0.0087,9.8066,-0.018,-0.015,-0.0191,-31.94,-28,26.94,349.6,-85.1,-139.92
52.402824,-1.502642,146.99,6.81,3,92.89,17 / 20,17927,2019-09-07 09:13:43:206,-0.9248,-0.1625,10.2352,-0.0089,-0.0031,9.8066,0.0508,-0.0326,-0.0375,-32.25,-27.69,27.44,351.02,-85.08,-138.59
52.402824,-1.502642,146.99,6.81,3,92.89,17 / 20,18027,2019-09-07 09:13:43:306,0.6795,-0.5832,9.6778,0.0035,-0.003,9.8066,0.022,-0.0505,-0.0046,-32.12,-27.69,26.88,350.86,-85.04,-138.74
52.402824,-1.502642,146.99,6.81,3,92.89,18 / 20,18128,2019-09-07 09:13:43:407,0.2868,-0.5528,9.7441,0.0164,-0.013,9.8065,-0.1141,-0.0228,-0.0085,-32.44,-28.19,26.94,351.34,-84.94,-138.27
52.402824,-1.502642,146.99,6.81,3,92.89,18 / 20,18228,2019-09-07 09:13:43:507,-0.2114,-0.3306,9.6178,-0.0076,0.0002,9.8066,-0.0542,-0.021,-0.0026,-31.87,-27.87,27.81,352.23,-84.9,-138.47
52.402824,-1.502642,146.99,6.81,3,92.89,18 / 20,18328,2019-09-07 09:13:43:607,-0.2325,0.0594,9.7055,-0.0154,0.0117,9.8066,0.0466,-0.0303,0.0034,-31.94,-28.37,27.25,351.59,-84.85,-138.03
52.402824,-1.502642,146.99,6.81,3,92.89,18 / 20,18427,2019-09-07 09:13:43:706,0.3733,-0.7482,9.6863,-0.016,0.0105,9.8066,0.0839,-0.0234,-0.0233,-31.62,-27.56,26.94,353.34,-84.96,-136.4
52.402824,-1.502642,146.99,6.81,3,92.89,18 / 20,18527,2019-09-07 09:13:43:806,0.6409,-0.49,9.5454,0.0083,-0.0119,9.8066,-0.1018,-0.0359,0.0346,-31.56,-28.37,27.25,353.73,-84.94,-136.03
52.402824,-1.502642,146.99,6.81,3,92.89,18 / 20,18628,2019-09-07 09:13:43:907,-0.2361,-0.1214,9.8594,-0.0017,-0.0098,9.8066,-0.0707,0.0006,0.028,-32.25,-28.06,27.38,354.52,-84.8,-135.28
52.402824,-1.502642,146.99,6.81,3,92.89,18 / 20,18727,2019-09-07 09:13:44:006,-0.0162,-0.081,9.6955,0.001,-0.013,9.8066,0.0422,0.0192,0.0157,-32.31,-28.25,27.06,355.53,-84.71,-134.33
52.402824,-1.502642,146.99,6.81,3,92.89,18 / 20,18827,2019-09-07 09:13:44:106,0.1168,-0.2503,10.1487,-0.009,-0.0019,9.8066,0.0652,-0.02,-0.0159,-32,-28.25,27.31,356.49,-84.66,-133.43
52.402824,-1.502642,146.99,6.81,3,92.89,18 / 20,18927,2019-09-07 09:13:44:206,0.0898,0.2088,9.7685,-0.0163,0.0052,9.8066,0.0321,-0.0054,-0.0304,-31.5,-28.31,27.31,357.33,-84.63,-133.54
52.402824,-1.502642,146.99,6.81,3,92.89,18 / 20,19027,2019-09-07 09:13:44:306,0.1273,0.6881,9.6708,-0.0128,0.01,9.8065,-0.0261,0.0272,-0.0487,-31.87,-28.62,27.31,357.53,-84.64,-132.45
52.402824,-1.502642,146.99,6.81,3,92.89,18 / 20,19128,2019-09-07 09:13:44:407,-0.6529,0.6874,9.5572,0.0018,-0.0028,9.8066,0.0654,0.0116,-0.0117,-31.87,-28.19,27.13,357.44,-84.67,-132.54
52.402824,-1.502642,146.99,6.81,3,92.89,18 / 20,19227,2019-09-07 09:13:44:506,0.188,0.6104,9.7594,0.005,0.0078,9.8066,-0.0837,0.0237,-0.0138,-31.56,-29.12,26.75,357.28,-84.78,-132.7
52.402824,-1.502642,146.99,6.81,3,92.89,18 / 20,19328,2019-09-07 09:13:44:607,0.2208,0.5305,9.5672,-0.0221,0.0184,9.8066,-0.0822,0.0738,-0.0382,-31.94,-28.81,26.69,357.39,-84.8,-132.59
52.402824,-1.502642,146.99,6.81,3,92.89,18 / 20,19427,2019-09-07 09:13:44:706,0.4554,0.0134,9.7168,-0.005,0.0121,9.8066,0.0919,0.0236,-0.0086,-31.56,-29.06,26.63,358.57,-84.91,-131.49
52.402824,-1.502642,146.99,6.81,3,92.89,18 / 20,19527,2019-09-07 09:13:44:806,0.3312,1.7008,9.8979,0.0086,-0.0031,9.8066,0.0039,0.0946,-0.0482,-31.62,-28.44,26.19,356.38,-84.96,-132.49
52.402824,-1.502642,146.99,6.81,3,92.89,18 / 20,19627,2019-09-07 09:13:44:906,-0.1519,0.7497,9.7153,0.0064,-0.0031,9.8066,-0.009,0.1048,-0.0029,-31.81,-28.87,26.44,355.53,-84.91,-133.27
52.402824,-1.502642,146.99,6.81,3,92.89,18 / 20,19728,2019-09-07 09:13:45:007,0.0596,0.3984,9.6985,-0.0051,0.0068,9.8066,-0.0254,0.0984,-0.0055,-32.12,-28.94,25.81,354.93,-84.9,-133.82
52.402824,-1.502642,146.99,6.81,3,92.89,18 / 20,19827,2019-09-07 09:13:45:106,0.7904,0.8719,9.5604,0.0015,-0.0016,9.8065,-0.0256,0.1197,-0.0487,-31.87,-28.37,26.38,354.92,-84.92,-133.85
52.402824,-1.502642,146.99,6.81,3,92.89,18 / 20,19927,2019-09-07 09:13:45:206,-0.4205,0.9585,10.1368,-0.0121,-0.0007,9.8066,-0.0595,0.0619,-0.0112,-32.31,-29.12,25.75,355.63,-84.93,-133.18
52.402824,-1.502642,146.99,6.81,3,92.89,18 / 20,20027,2019-09-07 09:13:45:306,-0.0908,0.4096,9.5132,-0.0107,0.0033,9.8066,0.0245,0.0693,0.026,-32.19,-28.19,25.31,354.75,-84.91,-132.91
52.402824,-1.502642,146.99,6.81,3,92.89,18 / 20,20127,2019-09-07 09:13:45:406,-0.2443,0.6151,10.0499,-0.0079,-0.0023,9.8066,-0.0031,0.0559,0.0275,-31.31,-29.5,26.25,356.89,-84.87,-132.89
52.402824,-1.502642,146.99,6.81,3,92.89,18 / 20,20227,2019-09-07 09:13:45:506,-0.0043,0.7423,10.1333,-0.0004,-0.0016,9.8066,0.0222,0.0731,-0.0426,-32.75,-28.31,25.75,355.58,-84.83,-132.37
52.402824,-1.502642,146.99,6.81,3,92.89,18 / 20,20327,2019-09-07 09:13:45:606,0.5789,0.8432,9.7481,0.0114,-0.0051,9.8066,0.0324,0.1037,-0.0301,-31.81,-29.12,25.5,356.35,-84.84,-132.5
52.402824,-1.502642,146.99,6.81,3,92.89,18 / 20,20427,2019-09-07 09:13:45:706,-0.1109,1.2996,9.8201,0.0143,-0.0001,9.8066,-0.0292,0.0948,-0.032,-32,-29.06,25.06,353.75,-84.82,-133.82
52.402824,-1.502642,146.99,6.81,3,92.89,18 / 20,20527,2019-09-07 09:13:45:806,-0.8158,1.6199,9.7217,-0.0221,0.011,9.8065,-0.0107,0.0932,-0.0093,-32.12,-28.87,25.19,355.25,-84.91,-132.43
52.402824,-1.502642,146.99,6.81,3,92.89,18 / 20,20627,2019-09-07 09:13:45:906,0.1046,-0.1243,9.869,-0.0195,0.0095,9.8065,0.0859,0.0849,0.0154,-32.87,-29.19,25.06,354.24,-84.83,-132.52
52.402824,-1.502642,146.99,6.81,3,92.89,18 / 20,20727,2019-09-07 09:13:46:006,0.7682,0.7099,9.4084,0.0093,-0.0059,9.8066,0.0347,0.1509,-0.0081,-32.5,-28.69,24.31,354.04,-84.8,-132.42
52.402824,-1.502642,146.99,6.81,3,92.89,18 / 20,20828,2019-09-07 09:13:46:107,-0.2497,0.7478,9.7981,0.0069,-0.0074,9.8066,0.0096,0.1263,-0.0341,-32.37,-29.62,24.25,353.55,-84.76,-132.85
52.402824,-1.502642,146.99,6.81,3,92.89,18 / 20,20927,2019-09-07 09:13:46:206,-0.2162,0.8924,9.9483,-0.0205,0.0125,9.8066,-0.0298,0.0687,0.0209,-33,-29.25,24.44,353.39,-84.83,-132.19
52.402824,-1.502642,146.99,6.81,3,92.89,18 / 20,21027,2019-09-07 09:13:46:306,-0.3527,1.1334,9.9099,-0.0014,0.0082,9.8066,0.0483,0.0609,0.0301,-32.87,-29.56,24.06,354.75,-84.96,-130.92
52.402824,-1.502642,146.99,6.81,3,92.89,18 / 20,21128,2019-09-07 09:13:46:407,-0.2846,1.6363,10.18,-0.0117,-0.0054,9.8066,0.0171,0.1587,-0.0547,-33.12,-29.81,23.88,355.26,-84.9,-130.44
52.402824,-1.502642,146.99,6.81,3,92.89,18 / 20,21227,2019-09-07 09:13:46:506,0.4636,1.3917,9.6727,0.0108,-0.0203,9.8065,-0.0051,0.0915,-0.048,-32.5,-29.25,24.31,355.36,-84.77,-131.18
52.402824,-1.502642,146.99,6.81,3,92.89,18 / 20,21327,2019-09-07 09:13:46:606,-0.3713,1.2494,9.9399,0.0144,-0.011,9.8066,-0.0073,0.0652,-0.0151,-33.19,-29.31,23.44,353.41,-84.73,-131
52.402824,-1.502642,146.99,6.81,3,92.89,18 / 20,21427,2019-09-07 09:13:46:706,-0.3774,1.16,9.1893,-0.0185,0.0098,9.8065,-0.0093,0.1079,0.0236,-32.87,-28.69,23.81,354.94,-84.72,-130.73
52.402824,-1.502642,146.99,6.81,3,92.89,18 / 20,21527,2019-09-07 09:13:46:806,-0.2145,0.9688,10.0335,-0.0245,0.0067,9.8066,0.0322,0.1319,-0.0201,-33.31,-29.19,23.13,355.51,-84.75,-129.05
52.402824,-1.502642,146.99,6.81,3,92.89,18 / 20,21627,2019-09-07 09:13:46:906,-0.6867,1.8235,9.8572,0.0042,-0.0073,9.8066,0.0147,0.0834,0.026,-33.44,-29.06,22.88,355.21,-84.77,-129.33
52.402824,-1.502642,146.99,6.81,3,92.89,18 / 20,21728,2019-09-07 09:13:47:007,-0.8561,1.5556,10.2218,0.0073,-0.0122,9.8066,-0.0139,0.078,0.0079,-32.69,-29.31,22.69,355.37,-84.68,-129.18
52.402824,-1.502642,146.99,6.81,3,92.89,18 / 20,21827,2019-09-07 09:13:47:106,-0.7578,1.4232,10.025,0.0066,-0.0077,9.8066,-0.0294,0.1317,-0.0214,-33.44,-29,22.94,355.67,-84.62,-128.89
52.402824,-1.502642,146.99,6.81,3,92.89,18 / 20,21928,2019-09-07 09:13:47:207,-1.5476,1.2772,9.5579,0.0017,-0.0126,9.8066,0.0136,0.1266,-0.0353,-33.19,-29.62,21.88,353.99,-84.53,-129.24
52.402824,-1.502642,146.99,6.81,3,92.89,18 / 20,22027,2019-09-07 09:13:47:306,-0.5389,1.0375,10.3346,-0.0061,0.0027,9.8066,0.0971,0.0538,0.011,-33.44,-29.31,22.31,353.64,-84.39,-129.57
52.402824,-1.502642,146.99,6.81,3,92.89,18 / 20,22128,2019-09-07 09:13:47:407,-0.7396,1.3445,9.7432,-0.0113,0.0079,9.8066,0.0465,0.1434,-0.0565,-33.56,-29.56,22.5,354.37,-84.41,-129.28
52.402584,-1.501725,146.6,7.47,3,106.51,19 / 21,22227,2019-09-07 09:13:47:506,-0.8575,0.8406,9.7186,0.0094,-0.0069,9.8066,0.0711,0.0339,-0.0174,-33.19,-29.06,22.25,353.15,-84.4,-130.02
52.402584,-1.501725,146.6,7.47,3,106.51,19 / 21,22327,2019-09-07 09:13:47:606,-0.8031,2.2175,10.3259,-0.002,-0.0098,9.8066,0.0268,0.0624,0.0298,-33.81,-29.06,22.31,352.41,-84.38,-129.93
52.402584,-1.501725,146.6,7.47,3,106.51,19 / 21,22427,2019-09-07 09:13:47:706,-1.8355,1.3011,9.6654,0.0138,0.0065,9.8065,-0.0119,0.1327,-0.0292,-33.56,-29.19,22.19,352.24,-84.36,-130.08
52.402584,-1.501725,146.6,7.47,3,106.51,19 / 21,22528,2019-09-07 09:13:47:807,-0.0696,2.6437,9.0222,0.0271,-0.0051,9.8065,0.047,0.0892,-0.0002,-34.06,-29.62,22.63,351.29,-84.41,-132.13
52.402584,-1.501725,146.6,7.47,3,106.51,19 / 21,22627,2019-09-07 09:13:47:906,-1.3464,1.0792,9.1143,-0.007,0.0057,9.8066,0.0103,0.0635,0.0176,-33.81,-28.75,22.19,348.8,-84.45,-133.29
52.402584,-1.501725,146.6,7.47,3,106.51,19 / 21,22727,2019-09-07 09:13:48:006,-1.0327,1.4053,10.3019,0.003,0.0128,9.8065,0.067,0.0905,-0.0095,-33.5,-28.94,22,348.63,-84.55,-134.23
52.402584,-1.501725,146.6,7.47,3,106.51,19 / 21,22827,2019-09-07 09:13:48:106,-0.9196,1.8244,9.6655,-0.0183,0.0121,9.8065,-0.0296,0.1419,-0.0019,-33.81,-29.06,20.88,347.3,-84.7,-133.5
52.402584,-1.501725,146.6,7.47,3,106.51,19 / 21,22927,2019-09-07 09:13:48:206,-1.5103,1.6218,9.7725,-0.0176,0.013,9.8066,0.0118,0.1211,-0.0108,-33.37,-29.19,21.31,349.16,-84.8,-132.54
52.402584,-1.501725,146.6,7.47,3,106.51,19 / 21,23027,2019-09-07 09:13:48:306,-0.3493,1.5337,9.6122,0.0058,-0.0115,9.8066,0.0556,0.1067,0.0239,-33.94,-29.56,20.69,348.17,-84.82,-132.69
52.402584,-1.501725,146.6,7.47,3,106.51,19 / 19,23128,2019-09-07 09:13:48:407,-1.2106,1.52,10.1994,0.0237,-0.0152,9.8066,-0.0698,0.1259,-0.0273,-34.31,-29.69,20.69,347.38,-84.71,-133.4
52.402584,-1.501725,146.6,7.47,3,106.51,18 / 19,23227,2019-09-07 09:13:48:506,-0.269,1.1652,9.642,-0.0086,0.0055,9.8066,-0.0605,0.131,-0.0186,-34.12,-29.69,20.63,347.18,-84.81,-133.61
52.402584,-1.501725,146.6,7.47,3,106.51,18 / 19,23327,2019-09-07 09:13:48:606,0.3712,1.2033,9.8186,0.0018,0.0043,9.8066,0.1178,0.1434,-0.0443,-33.12,-29.37,20.44,345.46,-84.77,-134.71
52.402584,-1.501725,146.6,7.47,3,106.51,18 / 19,23427,2019-09-07 09:13:48:706,0.48,1.1365,9.6066,0.0155,-0.0055,9.8066,0.0628,0.1235,-0.0258,-34.56,-29.44,20.06,342.02,-84.64,-136.46
52.402584,-1.501725,146.6,7.47,3,106.51,18 / 19,23527,2019-09-07 09:13:48:806,-0.2463,0.7403,10.0114,0.0062,0.0054,9.8065,0.0133,0.1614,-0.0396,-34.12,-29.44,20.69,343.61,-84.65,-136.93
52.402584,-1.501725,146.6,7.47,3,106.51,18 / 19,23627,2019-09-07 09:13:48:906,0.1058,1.2826,9.9482,0.0054,-0.0137,9.8066,0.0391,0.1344,0.0361,-33.12,-29.56,19.69,342.69,-84.71,-137.24
52.402584,-1.501725,146.6,7.47,3,106.51,18 / 19,23728,2019-09-07 09:13:49:007,0.5278,0.9786,9.9269,0.0026,-0.0007,9.8066,-0.0308,0.1948,-0.0243,-34,-29.06,19.94,341.7,-84.59,-137.44
52.402584,-1.501725,146.6,7.47,3,106.51,18 / 19,23827,2019-09-07 09:13:49:106,0.3967,1.5118,9.9088,-0.0016,0.0099,9.8066,-0.0418,0.2056,-0.0222,-34.19,-29.19,19.19,339.96,-84.59,-137.77
52.402584,-1.501725,146.6,7.47,3,106.51,18 / 19,23927,2019-09-07 09:13:49:206,0.2674,1.6489,9.751,0.0056,0.0031,9.8066,-0.0082,0.2144,-0.035,-33.94,-28.94,18.94,339.09,-84.58,-138.58
52.402584,-1.501725,146.6,7.47,3,106.51,18 / 19,24027,2019-09-07 09:13:49:306,0.0698,1.2229,9.6591,-0.0122,0.0012,9.8066,0.0269,0.1884,0.0064,-33.81,-29.19,18,337.63,-84.52,-138.61
52.402584,-1.501725,146.6,7.47,3,106.51,19 / 20,24128,2019-09-07 09:13:49:407,0.8206,0.5616,10.1158,-0.0095,-0.0043,9.8066,-0.0276,0.1858,0.0003,-34.25,-28.75,18.13,338.67,-84.49,-137.62
52.402584,-1.501725,146.6,7.47,3,106.51,19 / 20,24227,2019-09-07 09:13:49:506,0.8701,1.2764,10.1384,0.0147,-0.0038,9.8066,-0.0271,0.2207,-0.0269,-33.75,-28.62,18.19,338.77,-84.45,-137.53
52.402584,-1.501725,146.6,7.47,3,106.51,19 / 20,24327,2019-09-07 09:13:49:606,0.6618,0.9649,9.505,0.0097,-0.0059,9.8066,0.0629,0.1675,-0.0086,-34.19,-29.75,17.75,337.95,-84.38,-138.21
52.402584,-1.501725,146.6,7.47,3,106.51,19 / 20,24427,2019-09-07 09:13:49:706,1.3972,0.3965,9.8339,-0.0107,0.0139,9.8066,0.0204,0.1936,-0.0418,-34.69,-29.62,17.56,335.73,-84.4,-139.63
52.402584,-1.501725,146.6,7.47,3,106.51,19 / 20,24528,2019-09-07 09:13:49:807,2.1664,1.6484,10.0839,-0.006,0.0206,9.8066,0.0512,0.218,-0.0033,-34.56,-29.25,16.63,333.03,-84.61,-140.96
52.402584,-1.501725,146.6,7.47,3,106.51,19 / 20,24628,2019-09-07 09:13:49:907,0.4591,1.3731,9.8956,0.0138,-0.0057,9.8065,0.0483,0.2404,-0.0138,-33.75,-29,16.63,332.74,-84.62,-141.84
52.402584,-1.501725,146.6,7.47,3,106.51,19 / 20,24727,2019-09-07 09:13:50:006,1.1718,0.6694,10.0022,0.012,-0.0021,9.8066,0.0091,0.2338,-0.013,-34.06,-29.62,15.56,331.43,-84.64,-141.62
52.402584,-1.501725,146.6,7.47,3,106.51,19 / 20,24827,2019-09-07 09:13:50:106,0.4717,0.867,9.6021,0.0067,0.0046,9.8066,0.019,0.2117,-0.0258,-33.75,-29.37,15.44,329.64,-84.63,-141.93
52.402584,-1.501725,146.6,7.47,3,106.51,19 / 20,24927,2019-09-07 09:13:50:206,1.4613,1.0705,9.9304,-0.0021,0.0096,9.8066,0.0709,0.2174,-0.0153,-33.75,-29.5,14.75,327.92,-84.66,-143.56
52.402584,-1.501725,146.6,7.47,3,106.51,19 / 20,25027,2019-09-07 09:13:50:306,1.5303,0.7472,9.9508,0.0107,-0.0048,9.8066,0.0287,0.1584,0.0394,-33.75,-29.37,14.63,327.04,-84.62,-144.36
52.402584,-1.501725,146.6,7.47,3,106.51,19 / 20,25127,2019-09-07 09:13:50:406,0.9172,0.2389,9.897,-0.0094,0.0154,9.8066,0.061,0.2001,-0.0568,-33.37,-29.87,14.06,326.07,-84.8,-144.38
52.402584,-1.501725,146.6,7.47,3,106.51,18 / 20,25227,2019-09-07 09:13:50:506,1.563,1.0231,10.2945,0.0198,0.0182,9.8066,0.0251,0.2094,-0.0585,-33.94,-29.62,14.31,325.52,-84.96,-144.43
52.402584,-1.501725,146.6,7.47,3,106.51,18 / 20,25327,2019-09-07 09:13:50:606,2.0133,2.4765,9.9549,0.0024,0.019,9.8066,0.0299,0.2666,-0.0085,-33.69,-29.25,13.69,322.54,-85.19,-147.43
52.402584,-1.501725,146.6,7.47,3,106.51,18 / 20,25428,2019-09-07 09:13:50:707,0.982,0.7283,10.2269,-0.0114,0.0038,9.8065,0.0047,0.1626,0.0286,-33.19,-29.69,13.31,321.38,-85.01,-147.38
52.402584,-1.501725,146.6,7.47,3,106.51,18 / 20,25527,2019-09-07 09:13:50:806,1.3411,-0.2583,10.128,0.0172,-0.0019,9.8066,0.0716,0.1591,-0.0372,-33.87,-29.87,13.13,318.19,-84.82,-149.77
52.402584,-1.501725,146.6,7.47,3,106.51,18 / 20,25628,2019-09-07 09:13:50:907,1.5267,1.0711,9.6525,0.0278,-0.0034,9.8065,0.0607,0.1218,-0.0259,-32.87,-30.37,12.88,315.81,-84.53,-152.33
52.402584,-1.501725,146.6,7.47,3,106.51,18 / 20,25727,2019-09-07 09:13:51:006,1.5433,0.2168,10.1298,0.0149,-0.0253,9.8065,0.0479,0.1532,0.0358,-33.5,-30,12.75,315.12,-84.21,-152.77
52.402584,-1.501725,146.6,7.47,3,106.51,18 / 20,25827,2019-09-07 09:13:51:106,0.9863,0.249,10.0454,0.0092,-0.013,9.8066,0.0645,0.0897,0.0391,-33.31,-29.87,13.31,318.16,-84.11,-149.86
52.402584,-1.501725,146.6,7.47,3,106.51,18 / 20,25927,2019-09-07 09:13:51:206,0.1017,-0.6211,9.2942,0.0052,0.0071,9.8066,-0.1341,0.0978,-0.0882,-32.94,-30.31,13.06,318.7,-84.22,-149.43
52.402584,-1.501725,146.6,7.47,3,106.51,18 / 20,26028,2019-09-07 09:13:51:307,-0.4248,-0.8647,9.5447,-0.0301,0.0513,9.8065,-0.135,-0.0081,-0.0791,-32.56,-29.81,12.56,315.53,-84.99,-152.88
52.402584,-1.501725,146.6,7.47,3,106.51,18 / 20,26127,2019-09-07 09:13:51:406,0.4625,0.1969,9.3676,-0.03,0.0442,9.8064,-0.0428,-0.0339,0.0107,-32.69,-30.25,12.19,311.42,-85.15,-155.35
52.402584,-1.501725,146.6,7.47,3,106.51,18 / 19,26227,2019-09-07 09:13:51:506,0.7008,-1.7731,9.3751,-0.0076,-0.0046,9.8066,-0.002,-0.0733,0.0267,-33.12,-29.62,13.56,316.98,-85.77,-153.52
52.402584,-1.501725,146.6,7.47,3,106.51,18 / 19,26327,2019-09-07 09:13:51:606,-0.3741,-2.1223,9.5772,-0.0079,0.0151,9.8066,-0.0393,-0.1156,-0.0423,-32.5,-30.19,12.94,317.44,-86.05,-152.28
52.402584,-1.501725,146.6,7.47,3,106.51,18 / 19,26428,2019-09-07 09:13:51:707,-0.2859,-1.527,9.7063,-0.0203,0.031,9.8065,-0.0542,-0.1673,-0.0374,-32.12,-30,12.25,314.74,-86.36,-153.49
52.402584,-1.501725,146.6,7.47,3,106.51,18 / 19,26527,2019-09-07 09:13:51:806,-0.9254,-2.2315,10.1053,-0.0253,0.0012,9.8065,0.0416,-0.2528,0.066,-32.75,-29.75,12.88,314.01,-86.61,-155.38
52.402584,-1.501725,146.6,7.47,3,106.51,18 / 19,26627,2019-09-07 09:13:51:906,-1.2207,-3.3857,10.0451,0.0142,-0.036,9.8065,0.0587,-0.3293,0.1054,-33.25,-29.69,13.25,318.67,-86.47,-150.8
52.402584,-1.501725,146.6,7.47,3,106.51,18 / 19,26727,2019-09-07 09:13:52:006,-1.9826,-3.109,9.7889,0.0176,-0.023,9.8066,0.0103,-0.3249,0.0274,-33.69,-29.25,14.81,322.67,-86.25,-149.3
52.402584,-1.501725,146.6,7.47,3,106.51,18 / 19,26827,2019-09-07 09:13:52:106,-2.0383,-3.7506,9.9426,-0.0158,-0.0072,9.8065,-0.0655,-0.4187,0.0824,-33.56,-29.62,14.38,324.05,-86.05,-146.37
52.402584,-1.501725,146.6,7.47,3,106.51,18 / 19,26927,2019-09-07 09:13:52:206,-1.6811,-2.9569,9.7064,-0.0265,-0.0071,9.8066,0.0396,-0.4835,0.0841,-33.94,-28.94,16,331.44,-85.98,-142.22
52.402584,-1.501725,146.6,7.47,3,106.51,18 / 19,27028,2019-09-07 09:13:52:307,-1.2302,-2.8534,9.5394,-0.0035,0.0056,9.8066,-0.04,-0.3672,-0.0204,-33.56,-29.5,16.63,333.17,-86.03,-141.97
52.402584,-1.501725,146.6,7.47,3,106.51,18 / 19,27127,2019-09-07 09:13:52:406,-2.0303,-3.1068,9.5225,-0.0009,-0.0048,9.8066,-0.0993,-0.4006,0.0477,-33.5,-29.37,17.31,334.83,-86.02,-141.05
52.402584,-1.501725,146.6,7.47,3,106.51,18 / 19,27227,2019-09-07 09:13:52:506,-2.9381,-4.0109,9.3056,-0.0255,0.0114,9.8065,-0.1086,-0.5021,0.0735,-33.56,-28.87,18.88,338.3,-85.93,-139.72
52.402584,-1.501725,146.6,7.47,3,106.51,18 / 19,27327,2019-09-07 09:13:52:606,-3.071,-2.8972,9.5807,-0.0275,0.0146,9.8065,0.0626,-0.5164,0.0864,-33.12,-28.75,20,342.72,-86.08,-137.59
52.402584,-1.501725,146.6,7.47,3,106.51,18 / 19,27427,2019-09-07 09:13:52:706,-1.881,-4.1545,10.5177,0.021,-0.0249,9.8066,0.0811,-0.5235,0.0228,-34.44,-28.37,20.5,343.59,-85.9,-137.26
52.402584,-1.501725,146.6,7.47,3,106.51,18 / 19,27527,2019-09-07 09:13:52:806,-3.521,-3.4704,9.7265,0.0224,-0.0397,9.8065,-0.248,-0.4752,0.0468,-33.06,-28.19,22.06,348.68,-85.88,-134.41
52.402584,-1.501725,146.6,7.47,3,106.51,18 / 19,27627,2019-09-07 09:13:52:906,-4.5943,-3.5791,10.2531,-0.0308,0.023,9.8065,-0.2054,-0.5946,-0.0071,-34.37,-28.56,22.75,350.58,-85.78,-132.98
52.402584,-1.501725,146.6,7.47,3,106.51,18 / 19,27727,2019-09-07 09:13:53:006,-3.8164,-3.8703,9.9442,-0.0186,-0.0101,9.8066,-0.0402,-0.5314,0.0008,-32.81,-28.75,24.19,354.25,-85.76,-131.46
52.402584,-1.501725,146.6,7.47,3,106.51,18 / 19,27827,2019-09-07 09:13:53:106,-4.9125,-7.5712,11.8461,0.0248,-0.058,9.8064,0.1242,-0.743,0.1016,-32.69,-28.81,25.25,357.03,-85.62,-129.95
52.402584,-1.501725,146.6,7.47,3,106.51,18 / 19,27927,2019-09-07 09:13:53:206,-5.0895,-3.4986,8.4986,0.0524,-0.0674,9.8063,-0.3123,-0.7068,0.1682,-32.44,-29.06,26.5,3.16,-85.79,-127.17
52.402584,-1.501725,146.6,7.47,3,106.51,18 / 19,28028,2019-09-07 09:13:53:307,-4.8158,-1.6769,9.6663,-0.0388,-0.0086,9.8065,-0.212,-0.7246,0.1381,-31.87,-28.75,27.56,7.86,-85.42,-123.78
52.402584,-1.501725,146.6,7.47,3,106.51,19 / 20,28128,2019-09-07 09:13:53:407,-5.4001,-4.9336,10.1555,0.0104,-0.0039,9.8066,0.1466,-0.7782,0.1273,-31.56,-28.31,28.56,8.38,-85.5,-124.26
52.402584,-1.501725,146.6,7.47,3,106.51,19 / 20,28227,2019-09-07 09:13:53:506,-4.5655,-3.4517,9.6236,0.0102,-0.0136,9.8066,0.137,-0.6639,0.0054,-30.31,-28.31,30.19,13,-85.55,-122.7
52.402584,-1.501725,146.6,7.47,3,106.51,19 / 20,28328,2019-09-07 09:13:53:607,-5.1094,-3.5174,10.7618,0.0219,-0.0355,9.8065,-0.1677,-0.6379,0.0212,-30,-28.81,30.81,12.54,-85.38,-124.11
52.402584,-1.501725,146.6,7.47,3,106.51,19 / 20,28427,2019-09-07 09:13:53:706,-5.5161,-2.8037,9.5475,-0.0141,0.0148,9.8066,-0.1693,-0.7979,0.0449,-28.87,-28.5,32.5,16.45,-85.5,-123.1
52.402584,-1.501725,146.6,7.47,3,106.51,19 / 20,28527,2019-09-07 09:13:53:806,-5.9526,-3.4409,10.4084,-0.0086,0.005,9.8066,0.1247,-0.7403,0.0287,-28,-28.87,32.94,16.67,-85.42,-123.95
52.402584,-1.501725,146.6,7.47,3,106.51,19 / 20,28628,2019-09-07 09:13:53:907,-4.9143,-2.9938,9.5911,0.0222,-0.0164,9.8065,0.1031,-0.7375,0.0441,-26.06,-28.69,33.25,17.7,-85.39,-125.09
52.402584,-1.501725,146.6,7.47,3,106.51,19 / 20,28728,2019-09-07 09:13:54:007,-5.5025,-2.856,10.5994,0.02,-0.0227,9.8066,0.0365,-0.7948,0.0974,-25.87,-28.81,34.38,15.3,-85.26,-128.19
52.402584,-1.501725,146.6,7.47,3,106.51,19 / 20,28828,2019-09-07 09:13:54:107,-5.3436,-2.2712,9.9965,0.02,-0.0055,9.8066,0.0388,-0.769,0.0399,-24.31,-28.69,35.31,17.03,-85.14,-129.56
52.402584,-1.501725,146.6,7.47,3,106.51,19 / 20,28928,2019-09-07 09:13:54:207,-5.391,-2.826,10.4762,0.0047,-0.0035,9.8065,0.069,-0.7573,0.0017,-23,-28.25,36.06,15.48,-85.11,-132.85
52.402584,-1.501725,146.6,7.47,3,106.51,19 / 20,29027,2019-09-07 09:13:54:306,-5.0719,-2.2708,10.7412,-0.008,-0.0311,9.8065,0.0316,-0.7517,0.0724,-21.81,-28.69,36.06,15.77,-84.87,-133.82
52.402584,-1.501725,146.6,7.47,3,106.51,19 / 20,29128,2019-09-07 09:13:54:407,-4.3177,-2.4197,9.9194,0.0012,-0.0211,9.8066,-0.1147,-0.7325,0.0225,-19.81,-28.56,37.63,19.52,-84.46,-134.06
52.402584,-1.501725,146.6,7.47,3,106.51,18 / 19,29227,2019-09-07 09:13:54:506,-4.9869,-0.4424,9.6564,-0.0034,0.0128,9.8066,-0.096,-0.7157,-0.004,-19.06,-28.75,38.06,18.99,-84.51,-135.75
52.402584,-1.501725,146.6,7.47,3,106.51,18 / 19,29327,2019-09-07 09:13:54:606,-4.1692,-0.8791,9.781,-0.0148,0.0003,9.8066,-0.0077,-0.6377,0.0246,-17.5,-28.5,38.19,21.01,-84.27,-136.37
52.402584,-1.501725,146.6,7.47,3,106.51,18 / 19,29428,2019-09-07 09:13:54:707,-6.3347,-1.9872,10.4983,-0.0061,-0.025,9.8066,0.0146,-0.8172,0.149,-17,-28.87,38.31,20.94,-84.07,-136.54
52.402584,-1.501725,146.6,7.47,3,106.51,18 / 19,29527,2019-09-07 09:13:54:806,-4.3677,-0.7552,9.7646,0.0172,-0.0097,9.8065,-0.0811,-0.7878,0.0475,-15.56,-28.94,38.38,21.46,-83.98,-137.36
52.402584,-1.501725,146.6,7.47,3,106.51,18 / 19,29628,2019-09-07 09:13:54:907,-5.3198,-1.3676,9.2489,-0.0065,0.0106,9.8066,-0.1735,-0.738,0.0207,-13.81,-29,38.38,23.72,-84.09,-137.87
52.402584,-1.501725,146.6,7.47,3,106.51,18 / 19,29727,2019-09-07 09:13:55:006,-6.9069,-1.9552,10.5277,-0.006,0.0111,9.8066,-0.0745,-0.6653,-0.0457,-12.56,-29.37,37.69,26.04,-84.01,-137.09
52.402584,-1.501725,146.6,7.47,3,106.51,18 / 19,29828,2019-09-07 09:13:55:107,-6.1245,0.1501,10.8305,0.005,-0.0086,9.8066,0.0736,-0.8316,0.0754,-11.12,-29.06,37.56,27.98,-83.84,-138.13
52.402584,-1.501725,146.6,7.47,3,106.51,18 / 19,29928,2019-09-07 09:13:55:207,-4.676,-0.0364,10.2611,0.0073,-0.0068,9.8066,-0.0734,-0.7326,0.0645,-10.25,-29.69,36.56,27.89,-83.76,-139.41
52.402584,-1.501725,146.6,7.47,3,106.51,18 / 19,30027,2019-09-07 09:13:55:306,-4.6118,-0.7027,9.2328,0.019,-0.0144,9.8065,-0.0415,-0.7337,0.0319,-9.06,-30,35.56,26.99,-83.7,-141.42
52.402584,-1.501725,146.6,7.47,3,106.51,18 / 19,30127,2019-09-07 09:13:55:406,-5.7764,-0.0565,9.7987,0.0144,-0.0206,9.8065,0.0393,-0.7807,0.1091,-7.5,-30.25,35.94,27.04,-83.56,-144.49
52.402584,-1.501725,146.6,7.47,3,106.51,19 / 20,30228,2019-09-07 09:13:55:507,-5.6076,-0.5542,9.8399,0.0044,-0.0065,9.8065,0.0155,-0.7875,0.0962,-6.5,-29.94,34.69,27.58,-83.46,-145.4
52.402584,-1.501725,146.6,7.47,3,106.51,19 / 20,30327,2019-09-07 09:13:55:606,-4.4761,0.2052,9.5448,0.0106,-0.004,9.8066,-0.027,-0.7495,0.0317,-4.87,-30.06,34.13,28.04,-83.51,-146.41
52.402584,-1.501725,146.6,7.47,3,106.51,19 / 20,30427,2019-09-07 09:13:55:706,-5.4415,0.4132,10.2375,0.0129,-0.0055,9.8066,0.0021,-0.7521,0.0152,-4.06,-30.12,33.31,29.27,-83.55,-146.82
52.402584,-1.501725,146.6,7.47,3,106.51,19 / 20,30528,2019-09-07 09:13:55:807,-4.3163,0.6583,9.7859,0.0021,-0.0247,9.8066,-0.0639,-0.8543,0.1039,-3.25,-30.37,32.19,29.01,-83.49,-148.74
52.402584,-1.501725,146.6,7.47,3,106.51,19 / 20,30628,2019-09-07 09:13:55:907,-6.123,0.1248,10.6598,-0.0177,-0.0126,9.8065,-0.0527,-0.7895,0.0551,-3.19,-30.44,31.75,29.03,-83.34,-148.8
52.402584,-1.501725,146.6,7.47,3,106.51,19 / 20,30727,2019-09-07 09:13:56:006,-4.3354,1.8174,10.2858,-0.0059,-0.0144,9.8066,0.0101,-0.746,0.0564,-2.37,-30.69,29.75,31.65,-83.03,-148.5
52.402584,-1.501725,146.6,7.47,3,106.51,19 / 20,30827,2019-09-07 09:13:56:106,-5.6446,-0.2587,9.5364,-0.0323,-0.0027,9.8066,0.0526,-0.7186,0.0711,-1.44,-30.81,28.69,35.14,-82.8,-147.53
52.402584,-1.501725,146.6,7.47,3,106.51,19 / 20,30927,2019-09-07 09:13:56:206,-4.0379,1.003,9.6426,0.015,0.0102,9.8066,-0.0894,-0.847,0.0528,1.19,-33.5,22.06,44.83,-82.81,-145.63
52.402584,-1.501725,146.6,7.47,3,106.51,19 / 20,31027,2019-09-07 09:13:56:306,-5.5787,3.2505,10.4785,-0.0179,-0.0019,9.8066,-0.1294,-0.8833,0.1923,1.94,-34,20.38,50.94,-82.95,-144.3
52.402584,-1.501725,146.6,7.47,3,106.51,19 / 20,31128,2019-09-07 09:13:56:407,-3.5279,4.3899,10.5277,-0.0231,0.0095,9.8065,-0.0216,-0.8004,0.135,2.5,-35.12,18.63,57.75,-82.94,-142.38
52.40244,-1.501075,145.95,5.56,3,246.38,18 / 19,31227,2019-09-07 09:13:56:506,-4.8716,2.4459,9.8671,0.0151,-0.0254,9.8066,0.0085,-0.7509,-0.0457,2.25,-34.19,17.19,57.7,-82.72,-141.57
52.40244,-1.501075,145.95,5.56,3,246.38,18 / 19,31327,2019-09-07 09:13:56:606,-5.8407,3.632,10.0863,-0.0003,-0.0576,9.8064,0.004,-0.9058,0.1298,3,-34.12,15.56,56.6,-82.5,-147.47
52.40244,-1.501075,145.95,5.56,3,246.38,18 / 19,31427,2019-09-07 09:13:56:706,-5.7723,2.7808,9.6402,-0.056,-0.0518,9.8063,0.0709,-0.8115,0.1102,2.5,-34.5,14.88,58.93,-82.4,-147.29
52.40244,-1.501075,145.95,5.56,3,246.38,18 / 19,31527,2019-09-07 09:13:56:806,-4.81,3.1231,9.0485,0.0003,-0.0386,9.8066,-0.2869,-0.6964,-0.0272,2.38,-34.87,13.5,56.85,-82.15,-148.08
52.40244,-1.501075,145.95,5.56,3,246.38,18 / 19,31627,2019-09-07 09:13:56:906,-3.1016,3.9945,9.4017,0.039,0.0406,9.8064,-0.2584,-0.766,0.0268,2.31,-35.31,11.19,64.55,-82.65,-147.28
52.40244,-1.501075,145.95,5.56,3,246.38,18 / 19,31728,2019-09-07 09:13:57:007,-4.721,3.9651,9.9506,0.0285,0.0315,9.8065,0.0334,-0.9106,0.1156,1.88,-35.12,10.19,68.41,-82.66,-147.3
52.40244,-1.501075,145.95,5.56,3,246.38,18 / 19,31828,2019-09-07 09:13:57:107,-4.5155,4.0978,9.7716,-0.0017,-0.002,9.8066,-0.0202,-0.8294,0.0877,1.88,-35.31,8.94,72.89,-82.66,-147.63
52.40244,-1.501075,145.95,5.56,3,246.38,18 / 19,31928,2019-09-07 09:13:57:207,-2.0493,5.5843,9.6077,0.0035,-0.0088,9.8066,-0.0617,-0.7407,0.0678,1.63,-35.62,6.75,87.22,-82.69,-148.07
52.40244,-1.501075,145.95,5.56,3,246.38,18 / 19,32027,2019-09-07 09:13:57:306,-1.0678,5.5707,9.8413,0.0163,-0.002,9.8066,-0.0103,-0.7623,0.0914,0.94,-35.62,5.31,104.37,-82.68,-148.25
52.40244,-1.501075,145.95,5.56,3,246.38,18 / 19,32130,2019-09-07 09:13:57:409,-2.1543,4.6321,9.9938,0.005,0.001,9.8066,-0.164,-0.7974,0.1518,-0.31,-36.5,4.06,118.44,-82.8,-148.38
52.40244,-1.501075,145.95,5.56,3,246.38,18 / 19,32227,2019-09-07 09:13:57:506,3.8548,4.014,9.0473,0.0201,-0.0205,9.8066,-0.1766,-0.7929,0.1075,-1.06,-36.19,3.19,152.34,-82.92,-148.31
52.40244,-1.501075,145.95,5.56,3,246.38,18 / 19,32327,2019-09-07 09:13:57:606,4.8897,0.7727,8.9141,-0.0068,0.0092,9.8066,-0.0653,-0.7953,-0.0065,-1.81,-36.94,2.75,188.75,-82.83,-148.86
52.40244,-1.501075,145.95,5.56,3,246.38,18 / 19,32427,2019-09-07 09:13:57:706,5.2406,-4.3536,9.7203,-0.0082,-0.0068,9.8065,-0.1125,-0.8622,-0.0122,-2.62,-37.44,1.5,228.96,-82.86,-150.08
52.40244,-1.501075,145.95,5.56,3,246.38,18 / 19,32528,2019-09-07 09:13:57:807,6.6098,-3.3115,9.7381,-0.011,-0.0114,9.8065,0.0162,-0.8273,0.0749,-3.81,-37.37,1.19,240.14,-82.98,-150.98
52.40244,-1.501075,145.95,5.56,3,246.38,18 / 19,32627,2019-09-07 09:13:57:906,4.4415,-3.6487,9.8919,-0.0038,0.0145,9.8066,-0.0024,-0.7975,0.0483,-4.62,-36.69,0,245.1,-83.17,-151.65
52.40244,-1.501075,145.95,5.56,3,246.38,18 / 19,32727,2019-09-07 09:13:58:006,3.9058,-5.4696,9.3154,-0.0474,-0.0191,9.8065,-0.0186,-0.8388,0.0823,-5.37,-36,-1.19,241.72,-83.59,-152.88
52.40244,-1.501075,145.95,5.56,3,246.38,18 / 19,32828,2019-09-07 09:13:58:107,3.2971,-4.5798,9.8222,-0.0134,0,9.8066,0.0244,-0.8162,0.0173,-6.37,-35.56,-2.44,244.66,-83.68,-152.37
52.40244,-1.501075,145.95,5.56,3,246.38,18 / 19,32927,2019-09-07 09:13:58:206,1.9169,-4.8224,9.5044,-0.0331,-0.0021,9.8065,-0.1492,-0.8116,0.0104,-7.69,-35.19,-3.31,251.96,-84,-153.41
52.40244,-1.501075,145.95,5.56,3,246.38,18 / 19,33027,2019-09-07 09:13:58:306,1.6718,-4.0759,9.3237,-0.0202,-0.0075,9.8066,-0.1667,-0.7208,-0.0201,-7.87,-34.94,-3.37,251.21,-84.07,-154.58
52.40244,-1.501075,145.95,5.56,3,246.38,18 / 19,33131,2019-09-07 09:13:58:410,3.6864,-5.2298,9.7761,-0.0012,0.0026,9.8066,-0.0351,-0.8061,0.0786,-10.06,-34.87,-5.06,251.62,-84.21,-154.39
52.40244,-1.501075,145.95,5.56,3,246.38,18 / 19,33227,2019-09-07 09:13:58:506,3.4754,-3.5921,9.8295,-0.0155,-0.0029,9.8066,-0.1631,-0.7684,-0.0195,-10.94,-34.31,-4.5,261.02,-84.34,-152.52
52.40244,-1.501075,145.95,5.56,3,246.38,18 / 19,33327,2019-09-07 09:13:58:606,2.4217,-5.9829,10.5367,-0.0446,-0.0124,9.8065,0.0231,-0.7558,-0.0203,-12.12,-34.31,-5.69,258.26,-84.72,-151.98
52.40244,-1.501075,145.95,5.56,3,246.38,18 / 19,33427,2019-09-07 09:13:58:706,1.7228,-2.9481,9.344,-0.0072,0.0184,9.8066,-0.0596,-0.6474,-0.0085,-13.31,-34.12,-6.5,258.96,-85.06,-154.68
52.40244,-1.501075,145.95,5.56,3,246.38,18 / 19,33527,2019-09-07 09:13:58:806,2.9938,-4.7956,9.2601,0.0008,-0.003,9.8065,-0.0922,-0.8686,0.0796,-14.87,-34.69,-6.06,262.82,-85.18,-154.97
52.40244,-1.501075,145.95,5.56,3,246.38,18 / 19,33627,2019-09-07 09:13:58:906,3.5202,-5.2152,10.0737,-0.0134,-0.0182,9.8065,-0.2024,-0.7887,-0.0053,-16.69,-34.69,-6,269.46,-85.31,-151.94
52.40244,-1.501075,145.95,5.56,3,246.38,18 / 19,33727,2019-09-07 09:13:59:006,2.1889,-5.3851,9.4706,-0.0509,0.0039,9.8065,0.0883,-0.8404,0.1591,-18,-33.87,-6.44,273.15,-85.77,-150.8
52.40244,-1.501075,145.95,5.56,3,246.38,18 / 19,33827,2019-09-07 09:13:59:106,-0.0336,-4.4077,8.9306,-0.0116,-0.0352,9.8065,0.0104,-0.7158,0.081,-18.94,-33.25,-5.56,276.61,-86.08,-149.38
52.40244,-1.501075,145.95,5.56,3,246.38,18 / 19,33928,2019-09-07 09:13:59:207,0.5469,-7.4455,10.6397,-0.0173,-0.0278,9.8065,-0.0606,-0.8464,0.0855,-20.31,-33.5,-6.06,286.68,-85.94,-140.41
52.40244,-1.501075,145.95,5.56,3,246.38,18 / 19,34027,2019-09-07 09:13:59:306,1.6287,-6.0773,9.4557,-0.0031,0.0158,9.8065,-0.1091,-0.7945,-0.0235,-21.75,-33.19,-4.75,293.09,-85.8,-138.38
52.40244,-1.501075,145.95,5.56,3,246.38,18 / 19,34127,2019-09-07 09:13:59:406,0.8139,-6.4755,9.1743,0.002,-0.0108,9.8066,-0.0276,-0.7918,0.0089,-23.62,-32.94,-4.06,297.52,-85.9,-138.02
52.40244,-1.501075,145.95,5.56,3,246.38,18 / 20,34227,2019-09-07 09:13:59:506,1.7641,-6.4243,9.9107,-0.0293,-0.0335,9.8065,-0.0819,-0.7967,0.0752,-23.94,-32.94,-3.62,300.89,-86.05,-134.98
52.40244,-1.501075,145.95,5.56,3,246.38,18 / 20,34327,2019-09-07 09:13:59:606,0.9113,-6.5723,10.4028,-0.0341,0.0027,9.8065,-0.0945,-0.8218,0.0018,-25.56,-32.81,-2.56,311.1,-86.23,-128.66
52.40244,-1.501075,145.95,5.56,3,246.38,18 / 20,34427,2019-09-07 09:13:59:706,1.0447,-5.9361,9.3277,0.0066,0.0011,9.8066,-0.0758,-0.7877,0.0527,-25.5,-32.19,-1.94,315.98,-86.5,-126.29
52.40244,-1.501075,145.95,5.56,3,246.38,18 / 20,34528,2019-09-07 09:13:59:807,0.2408,-5.588,9.357,0.0089,-0.014,9.8066,-0.0177,-0.77,0.0201,-27.12,-31.87,-0.94,321.33,-86.4,-123.82
52.40244,-1.501075,145.95,5.56,3,246.38,18 / 20,34627,2019-09-07 09:13:59:906,-0.593,-5.4997,9.6168,-0.0237,0.0025,9.8066,-0.022,-0.7641,0.0529,-27.87,-32.25,0.5,328.63,-86.48,-121.27
52.40244,-1.501075,145.95,5.56,3,246.38,18 / 20,34727,2019-09-07 09:14:00:006,-0.6108,-6.8255,10.178,-0.0066,0.0013,9.8066,-0.0738,-0.7858,0.0377,-28.5,-32,1.69,331.38,-86.46,-120.73
52.40244,-1.501075,145.95,5.56,3,246.38,18 / 20,34827,2019-09-07 09:14:00:106,-0.4517,-7.0785,9.8807,-0.0079,-0.0096,9.8066,-0.0719,-0.7464,-0.0023,-29.69,-32,2.5,335.11,-86.33,-118.91
52.40244,-1.501075,145.95,5.56,3,246.38,18 / 20,34927,2019-09-07 09:14:00:206,0.0081,-6.0911,9.6019,-0.0111,0.0041,9.8066,-0.075,-0.7787,0.0461,-30,-31.56,4,338.94,-86.41,-117.26
52.40244,-1.501075,145.95,5.56,3,246.38,18 / 20,35028,2019-09-07 09:14:00:307,-0.7322,-6.6576,9.6477,0.0101,-0.0012,9.8066,-0.1378,-0.8572,0.0907,-30.37,-32.31,5.75,343.91,-86.34,-116.31
52.40244,-1.501075,145.95,5.56,3,246.38,18 / 20,35127,2019-09-07 09:14:00:406,-0.8634,-7.1056,9.3519,0.0046,0.0019,9.8066,-0.1088,-0.8099,0.0689,-30.94,-31.25,6.81,345.55,-86.31,-116.25
52.40244,-1.501075,145.95,5.56,3,246.38,19 / 20,35227,2019-09-07 09:14:00:506,-2.2854,-5.2676,9.452,-0.02,0.0057,9.8066,0.0427,-0.77,0.0316,-31.75,-31.69,8.75,351.49,-86.36,-113.69
52.40244,-1.501075,145.95,5.56,3,246.38,19 / 20,35327,2019-09-07 09:14:00:606,-3.1538,-5.0751,10.5464,-0.0094,0.006,9.8066,-0.0154,-0.7438,0.0228,-31.19,-30.94,9.94,353.51,-86.37,-113.96
52.40244,-1.501075,145.95,5.56,3,246.38,19 / 20,35427,2019-09-07 09:14:00:706,-2.1738,-6.0207,10.1453,0.014,-0.0013,9.8066,-0.108,-0.8326,0.0207,-31.94,-31.5,11.63,357.49,-86.41,-112.92
52.40244,-1.501075,145.95,5.56,3,246.38,19 / 20,35527,2019-09-07 09:14:00:806,-2.8702,-5.3128,10.1398,0.0078,-0.0381,9.8065,-0.0631,-0.8285,0.0483,-30.81,-32,13,359.49,-86.21,-113.23
52.40244,-1.501075,145.95,5.56,3,246.38,19 / 20,35627,2019-09-07 09:14:00:906,-3.1835,-5.7255,9.3856,0.0033,-0.0154,9.8066,-0.0073,-0.7784,0.0317,-31.12,-31.12,15.25,2.71,-85.8,-113.3
52.40244,-1.501075,145.95,5.56,3,246.38,19 / 20,35727,2019-09-07 09:14:01:006,-3.6291,-5.2542,9.8018,0.0077,-0.0127,9.8066,-0.03,-0.7335,0,-31,-31.12,16.38,2.9,-85.63,-114.6
52.40244,-1.501075,145.95,5.56,3,246.38,19 / 20,35828,2019-09-07 09:14:01:107,-3.3618,-4.9872,10.0812,-0.0358,0.0003,9.8065,-0.1552,-0.7926,0.1187,-30.44,-30.75,19,7.36,-85.45,-115.52
52.40244,-1.501075,145.95,5.56,3,246.38,19 / 20,35927,2019-09-07 09:14:01:206,-1.8324,-5.7671,10.1067,-0.0051,-0.0376,9.8065,-0.3117,-0.8759,0.1159,-30.5,-30.56,19.81,14.69,-84.92,-110.16
52.40244,-1.501075,145.95,5.56,3,246.38,19 / 20,36027,2019-09-07 09:14:01:306,-4.8527,-6.8586,9.1017,0.0093,0.0258,9.8065,-0.3106,-0.9838,0.0039,-29.56,-31.06,21.13,21.26,-84.96,-105.35
52.40244,-1.501075,145.95,5.56,3,246.38,18 / 19,36128,2019-09-07 09:14:01:407,-4.9487,-4.4003,9.8858,0.0049,-0.0172,9.8066,-0.0503,-0.8313,0.0257,-29.31,-31.12,22.31,24.94,-84.86,-104.18
52.40244,-1.501075,145.95,5.56,3,246.38,18 / 19,36227,2019-09-07 09:14:01:506,-4.4022,-4.0397,9.9096,-0.0018,0.0133,9.8066,0.0083,-0.8767,0.0005,-28,-30.62,23.75,28.48,-84.7,-104.35
52.40244,-1.501075,145.95,5.56,3,246.38,18 / 19,36327,2019-09-07 09:14:01:606,-5.7843,-3.4044,10.9084,-0.0049,-0.0097,9.8066,-0.0529,-0.7893,0.0139,-26.94,-30.81,25.06,27.95,-84.53,-107.12
52.40244,-1.501075,145.95,5.56,3,246.38,18 / 19,36427,2019-09-07 09:14:01:706,-3.9777,-4.148,10.0581,0.0081,-0.006,9.8066,-0.0517,-0.7745,-0.0064,-26.69,-30.56,25.69,27.38,-84.54,-108.72
52.40244,-1.501075,145.95,5.56,3,246.38,18 / 19,36527,2019-09-07 09:14:01:806,-5.4102,-2.4175,10.2053,0.0162,-0.0166,9.8066,-0.0473,-0.8832,0.1051,-25.31,-30.69,27.56,30.04,-84.55,-110.56
52.40244,-1.501075,145.95,5.56,3,246.38,18 / 19,36627,2019-09-07 09:14:01:906,-5.9708,-3.802,10.3562,0.0032,-0.0344,9.8065,-0.0319,-0.792,0.0233,-23.75,-30.31,29.19,29.48,-84.24,-113.29
52.40244,-1.501075,145.95,5.56,3,246.38,18 / 19,36727,2019-09-07 09:14:02:006,-4.9571,-4.2205,9.3237,-0.0032,0.0069,9.8066,0.0624,-0.8088,0.0334,-22.37,-31.19,29.5,30.97,-84.15,-115.41
52.40244,-1.501075,145.95,5.56,3,246.38,18 / 19,36828,2019-09-07 09:14:02:107,-4.7284,-1.4809,9.4675,0.0305,-0.0641,9.8064,-0.123,-0.7251,0.0171,-21.81,-31.12,30.69,27.44,-83.93,-119.61
52.40244,-1.501075,145.95,5.56,3,246.38,18 / 19,36927,2019-09-07 09:14:02:206,-5.8394,-0.1407,10.0002,-0.0172,0.0439,9.8065,0.163,-0.8399,0.0541,-20.25,-30.31,30.94,27.91,-83.71,-121.79
52.40244,-1.501075,145.95,5.56,3,246.38,18 / 19,37028,2019-09-07 09:14:02:307,-5.268,-2.1012,11.3302,-0.0238,0.0078,9.8065,0.0219,-0.8009,0.0405,-18.94,-31,31.75,30.12,-83.54,-122.04
52.40244,-1.501075,145.95,5.56,3,246.38,18 / 19,37127,2019-09-07 09:14:02:406,-5.23,-2.4869,10.4072,0.026,-0.0271,9.8066,0.0784,-0.8152,-0.0075,-17.87,-31.25,32.44,30.14,-83.27,-123.53
52.40244,-1.501075,145.95,5.56,3,246.38,18 / 19,37227,2019-09-07 09:14:02:506,-5.8454,-1.7936,9.9682,0.0196,-0.046,9.8064,-0.2351,-0.8081,0.0484,-16.69,-30.87,33.19,28.55,-83.07,-127.13
52.40244,-1.501075,145.95,5.56,3,246.38,18 / 19,37327,2019-09-07 09:14:02:606,-4.8862,-0.3503,9.7248,-0.0114,0.0163,9.8066,-0.2624,-0.8108,0.0183,-15.12,-31.5,33.25,30.58,-82.97,-128.22
52.40244,-1.501075,145.95,5.56,3,246.38,18 / 19,37427,2019-09-07 09:14:02:706,-5.9824,0.0416,9.8461,-0.01,0.0262,9.8066,0.1174,-0.8791,0.054,-13.44,-31.12,33.31,33.25,-82.87,-128.87
52.40244,-1.501075,145.95,5.56,3,246.38,18 / 19,37527,2019-09-07 09:14:02:806,-6.3354,-0.8014,10.1074,0.0047,-0.036,9.8066,0.1213,-0.8896,0.0941,-12.31,-31.12,33,33.76,-82.89,-129.96
52.40244,-1.501075,145.95,5.56,3,246.38,18 / 19,37628,2019-09-07 09:14:02:907,-5.1761,-0.2401,9.9865,0.0128,-0.0446,9.8065,-0.2426,-0.7365,-0.0115,-10.06,-31.69,32.44,34.92,-82.73,-131.91
52.40244,-1.501075,145.95,5.56,3,246.38,18 / 19,37727,2019-09-07 09:14:03:006,-4.9395,0.1395,10.2455,0.0081,-0.0255,9.8066,-0.1939,-0.7482,0.0009,-9.62,-31.56,31.75,34.23,-82.69,-132.56
52.40244,-1.501075,145.95,5.56,3,246.38,18 / 19,37827,2019-09-07 09:14:03:106,-5.3843,0.5272,10.7217,-0.0079,-0.0274,9.8066,-0.1171,-0.7309,-0.0225,-7.69,-32.25,32.06,37.69,-82.67,-132.85
52.40244,-1.501075,145.95,5.56,3,246.38,18 / 19,37927,2019-09-07 09:14:03:206,-6.0213,0.1529,10.5147,0.012,-0.0118,9.8066,-0.0564,-0.8586,0.0552,-6.94,-32.31,31.63,38,-82.52,-134.41
52.40244,-1.501075,145.95,5.56,3,246.38,18 / 19,38027,2019-09-07 09:14:03:306,-4.7847,-0.0325,9.6714,0.0287,-0.0089,9.8065,-0.0229,-0.8303,0.0436,-5.94,-32.5,30.75,37.92,-82.44,-136.08
52.40244,-1.501075,145.95,5.56,3,246.38,18 / 19,38127,2019-09-07 09:14:03:406,-5.9677,0.2561,10.2234,0.0126,-0.0156,9.8066,0.0614,-0.8695,0.1693,-4,-32.81,30.5,38.93,-82.49,-138.95
52.40244,-1.501075,145.95,5.56,3,246.38,18 / 19,38227,2019-09-07 09:14:03:506,-6.0576,1.7131,10.4806,0.01,-0.0135,9.8065,0.0431,-0.7933,0.093,-3.94,-33.06,30,38.04,-82.49,-139.66
52.40244,-1.501075,145.95,5.56,3,246.38,18 / 19,38328,2019-09-07 09:14:03:607,-5.4608,1.6817,9.9054,0.0134,-0.0022,9.8066,-0.016,-0.8269,0.0937,-2,-32.87,28.31,40.21,-82.68,-141.5
52.40244,-1.501075,145.95,5.56,3,246.38,18 / 19,38427,2019-09-07 09:14:03:706,-5.4702,2.4183,10.2855,0.0142,0.001,9.8066,-0.0338,-0.8215,0.0679,-1.37,-33.62,27.06,42.11,-82.7,-142.18
52.40244,-1.501075,145.95,5.56,3,246.38,18 / 19,38527,2019-09-07 09:14:03:806,-6.2828,2.1021,10.358,0.0066,0.0024,9.8066,-0.0783,-0.7294,0.0581,-0.44,-33,26.69,42.4,-82.77,-143.8
52.40244,-1.501075,145.95,5.56,3,246.38,18 / 19,38627,2019-09-07 09:14:03:906,-5.1736,1.7386,10.1625,-0.0128,-0.0029,9.8066,-0.0761,-0.8341,0.1304,0.5,-33.5,25,43.96,-82.66,-145.31
52.40244,-1.501075,145.95,5.56,3,246.38,18 / 19,38727,2019-09-07 09:14:04:006,-4.371,1.9027,9.8913,0.0006,0.0026,9.8066,-0.0855,-0.9697,0.1304,0.81,-33.12,23.5,44.81,-82.41,-145.2
52.40244,-1.501075,145.95,5.56,3,246.38,18 / 19,38827,2019-09-07 09:14:04:106,-6.146,2.1221,8.6942,-0.0029,0.02,9.8066,-0.1388,-0.8896,-0.0086,1.44,-34.19,22.38,45.72,-82.29,-145.7
52.40244,-1.501075,145.95,5.56,3,246.38,18 / 19,38928,2019-09-07 09:14:04:207,-4.4387,3.662,10.3041,-0.0093,0.0106,9.8065,-0.01,-0.701,0.0637,2.19,-33.75,20,50.67,-82.49,-145.19
52.40244,-1.501075,145.95,5.56,3,246.38,18 / 19,39027,2019-09-07 09:14:04:306,-4.5487,3.0329,10.4799,-0.0063,0.008,9.8066,-0.0014,-0.7032,0.0792,2.63,-34.19,18.88,56.55,-82.69,-143.52
52.40244,-1.501075,145.95,5.56,3,246.38,19 / 20,39128,2019-09-07 09:14:04:407,-6.4351,3.0127,10.3439,0.0045,0.0037,9.8066,0.0256,-0.8436,0.158,2.31,-34.62,16.94,56.3,-82.7,-143.19
52.40244,-1.501075,145.95,5.56,3,246.38,19 / 20,39227,2019-09-07 09:14:04:506,-5.6546,6.2101,9.6736,0.0063,-0.0254,9.8065,0.0047,-0.7308,0.0471,3,-34.31,15.81,59.63,-82.68,-144.56
52.40244,-1.501075,145.95,5.56,3,246.38,19 / 20,39327,2019-09-07 09:14:04:606,-4.151,2.9759,8.9898,-0.012,-0.0138,9.8066,-0.0216,-0.7058,0.104,2.69,-34.75,14.38,59.95,-82.49,-148.52
52.40244,-1.501075,145.95,5.56,3,246.38,19 / 20,39427,2019-09-07 09:14:04:706,-4.5706,3.8445,10.0643,-0.0042,0.0001,9.8066,-0.0605,-0.7964,0.0351,2.81,-34.87,12.69,64.67,-82.1,-147.71
52.40244,-1.501075,145.95,5.56,3,246.38,19 / 20,39527,2019-09-07 09:14:04:806,-4.3756,3.812,10.5516,0.0097,-0.0073,9.8065,-0.0814,-0.8863,0.1146,2.44,-34.87,11.88,61.7,-82.26,-148.06
52.40244,-1.501075,145.95,5.56,3,246.38,19 / 20,39628,2019-09-07 09:14:04:907,-4.402,4.0249,10.1012,0.0055,0.0165,9.8066,-0.1255,-0.7901,0.0822,1.44,-35.25,9.31,66.4,-82.56,-147.61
52.40244,-1.501075,145.95,5.56,3,246.38,19 / 20,39728,2019-09-07 09:14:05:007,-2.4963,4.6583,9.8953,0.0012,0.0137,9.8066,-0.0644,-0.734,0.0424,2.13,-35.37,8.19,80.06,-82.6,-146.96
52.40244,-1.501075,145.95,5.56,3,246.38,19 / 20,39828,2019-09-07 09:14:05:107,-2.9078,5.4516,10.346,-0.0288,-0.0183,9.8065,-0.0867,-0.8368,0.0956,0.56,-35.81,6.38,92.1,-82.66,-146.99
52.40244,-1.501075,145.95,5.56,3,246.38,19 / 20,39927,2019-09-07 09:14:05:206,-1.701,5.9838,10.2508,-0.0287,-0.02,9.8066,-0.0991,-0.7802,0.0666,0.31,-35.44,4.63,96.88,-82.56,-148.27
52.40244,-1.501075,145.95,5.56,3,246.38,19 / 20,40027,2019-09-07 09:14:05:306,1.841,5.3158,10.533,0.0579,-0.0027,9.8064,0.1146,-0.7821,0.1086,-0.31,-36.62,3.94,123.6,-82.59,-148.61
52.40244,-1.501075,145.95,5.56,3,246.38,18 / 19,40127,2019-09-07 09:14:05:406,4.6068,3.0849,10.7038,0.0533,-0.0338,9.8064,0.1362,-0.8333,0.137,-1.31,-37,2.63,152.21,-82.9,-146.7
52.402412,-1.501198,145.36,7.41,4,298.25,18 / 19,40227,2019-09-07 09:14:05:506,7.0192,-1.3868,10.4845,-0.0108,0.0655,9.8064,-0.1156,-0.8574,0.0308,-2.62,-37.75,1.31,219.4,-82.63,-148.13
52.402412,-1.501198,145.36,7.41,4,298.25,18 / 19,40328,2019-09-07 09:14:05:607,5.5334,-1.7292,9.4318,0,0.052,9.8064,-0.1156,-0.7903,-0.0025,-3.06,-37.19,0.5,221.46,-82.69,-148.96
52.402412,-1.501198,145.36,7.41,4,298.25,18 / 19,40427,2019-09-07 09:14:05:706,4.3746,-3.9598,9.4921,-0.0201,-0.0156,9.8066,0.0512,-0.827,0.0722,-4,-36.75,0.63,238.09,-82.7,-149.47
52.402412,-1.501198,145.36,7.41,4,298.25,18 / 19,40527,2019-09-07 09:14:05:806,7.1035,-3.8496,11.0153,-0.0646,-0.0531,9.8062,0.0952,-0.8504,0.0823,-5.5,-36.25,-0.44,247.93,-83.2,-149.53
52.402412,-1.501198,145.36,7.41,4,298.25,18 / 19,40628,2019-09-07 09:14:05:907,4.5004,-4.0292,9.4048,-0.003,0.0072,9.8066,-0.0777,-0.8992,0.1528,-5.81,-35.87,-1.19,250.37,-83.35,-149.77
52.402412,-1.501198,145.36,7.41,4,298.25,18 / 19,40727,2019-09-07 09:14:06:006,3.32,-5.773,10.1754,-0.0265,-0.0179,9.8065,-0.0679,-0.8358,0.1865,-7.44,-35.69,-2.12,253.43,-83.58,-148.52
52.402412,-1.501198,145.36,7.41,4,298.25,18 / 19,40827,2019-09-07 09:14:06:106,3.0769,-4.0888,9.6615,-0.002,0.0152,9.8066,-0.1252,-0.8084,0.0766,-7.75,-35.31,-2.81,256.48,-83.69,-146.9
52.402412,-1.501198,145.36,7.41,4,298.25,18 / 19,40928,2019-09-07 09:14:06:207,3.3319,-4.7291,9.5133,-0.0011,0.0171,9.8066,-0.1414,-0.8051,0.0879,-9.75,-35.31,-3.56,260.36,-83.81,-147.57
52.402412,-1.501198,145.36,7.41,4,298.25,18 / 19,41027,2019-09-07 09:14:06:306,3.6313,-5.4245,9.6632,-0.0198,-0.0244,9.8065,-0.0563,-0.744,0.0397,-11.44,-34.56,-5.19,262.37,-84.14,-146.1
52.402412,-1.501198,145.36,7.41,4,298.25,18 / 19,41127,2019-09-07 09:14:06:406,2.3324,-6.159,10.035,-0.0213,-0.0095,9.8065,-0.0949,-0.778,0.0169,-11.56,-34.75,-4.81,265.95,-84.3,-145.91
52.402412,-1.501198,145.36,7.41,4,298.25,18 / 19,41227,2019-09-07 09:14:06:506,2.6644,-4.4499,9.4519,-0.0233,0.0103,9.8066,-0.0319,-0.7951,0.0083,-13.31,-34.37,-5.94,265.64,-84.54,-146.52
52.402412,-1.501198,145.36,7.41,4,298.25,18 / 19,41327,2019-09-07 09:14:06:606,3.7686,-5.724,9.0207,-0.0153,-0.0016,9.8066,-0.0288,-0.8813,0.1652,-14.56,-34,-6.19,269.96,-84.89,-147.39
52.402412,-1.501198,145.36,7.41,4,298.25,18 / 19,41427,2019-09-07 09:14:06:706,2.8264,-5.7373,9.744,-0.0238,-0.0321,9.8065,-0.0922,-0.7962,0.0936,-15.94,-33.62,-6.12,276.07,-84.84,-143.06
52.402412,-1.501198,145.36,7.41,4,298.25,18 / 19,41527,2019-09-07 09:14:06:806,2.6372,-5.2742,9.7513,-0.0543,-0.0257,9.8064,0.003,-0.8005,0.0431,-17.62,-33.37,-6.06,285.53,-85.2,-137.9
52.402412,-1.501198,145.36,7.41,4,298.25,18 / 19,41627,2019-09-07 09:14:06:906,2.6412,-5.1164,9.5915,0.0015,-0.0076,9.8066,-0.118,-0.9195,0.1576,-19.19,-34.12,-7,285.28,-85.33,-136.85
52.402412,-1.501198,145.36,7.41,4,298.25,18 / 19,41727,2019-09-07 09:14:07:006,3.1527,-6.8607,10.0008,0.0178,-0.0134,9.8065,-0.0618,-0.8312,0.0882,-20.31,-33.19,-6.12,292.7,-85.11,-133.37
52.402412,-1.501198,145.36,7.41,4,298.25,18 / 19,41827,2019-09-07 09:14:07:106,1.0343,-5.7059,9.5196,-0.0363,0.0027,9.8066,0.0583,-0.7232,-0.0124,-21.69,-32.87,-5.5,296.65,-85.09,-134.02
52.402412,-1.501198,145.36,7.41,4,298.25,18 / 19,41927,2019-09-07 09:14:07:206,1.8889,-5.8197,9.5568,-0.0381,-0.0091,9.8065,0.0409,-0.6967,0.0211,-23.12,-32.94,-4.62,299.11,-85.43,-132.93
52.402412,-1.501198,145.36,7.41,4,298.25,18 / 19,42027,2019-09-07 09:14:07:306,1.751,-6.671,9.3026,-0.0024,-0.0136,9.8066,-0.167,-0.7837,0.0527,-23.25,-32.56,-4.19,303.64,-85.52,-131.13
52.402412,-1.501198,145.36,7.41,4,298.25,18 / 20,42127,2019-09-07 09:14:07:406,1.4834,-6.3494,9.2336,-0.0249,-0.0075,9.8066,-0.0771,-0.6732,-0.0124,-25.5,-32.25,-2.94,311.22,-85.64,-127.67
52.402412,-1.501198,145.36,7.41,4,298.25,18 / 20,42227,2019-09-07 09:14:07:506,0.0989,-6.5899,9.7323,-0.0027,-0.0063,9.8066,-0.0824,-0.7218,0.0467,-25.37,-32.12,-1.75,315.17,-85.69,-126.29
52.402412,-1.501198,145.36,7.41,4,298.25,18 / 20,42328,2019-09-07 09:14:07:607,0.1041,-7.0802,9.509,0.0117,0.0102,9.8066,-0.0677,-0.736,0.0294,-27.19,-32.12,-1.5,318.7,-85.67,-125.71
52.402412,-1.501198,145.36,7.41,4,298.25,18 / 20,42428,2019-09-07 09:14:07:707,-0.2798,-6.2692,10.2173,-0.0185,-0.0076,9.8066,-0.0675,-0.7638,0.0582,-27.5,-31.87,0.25,324.05,-85.65,-122.85
52.402412,-1.501198,145.36,7.41,4,298.25,18 / 20,42527,2019-09-07 09:14:07:806,-0.5077,-5.331,9.7895,-0.0058,-0.008,9.8066,-0.0852,-0.7421,-0.045,-28.56,-32.37,1.19,326.55,-85.59,-122.66
52.402412,-1.501198,145.36,7.41,4,298.25,18 / 20,42627,2019-09-07 09:14:07:906,-0.6213,-7.2932,9.3093,0.0179,0.0023,9.8066,-0.0654,-0.8434,0.0475,-29,-32.19,2.5,330.84,-85.65,-122.66
52.402412,-1.501198,145.36,7.41,4,298.25,18 / 20,42727,2019-09-07 09:14:08:006,-1.3438,-6.2276,10.6467,-0.0077,-0.0045,9.8066,0.0482,-0.7522,0.0284,-29.37,-32.19,3.06,330.27,-85.71,-123.23
52.402412,-1.501198,145.36,7.41,4,298.25,18 / 20,42827,2019-09-07 09:14:08:106,0.1059,-5.0985,10.0213,0.0268,0.0056,9.8066,0.0844,-0.7263,0.0154,-30.5,-32.19,5,333.38,-85.68,-123.98
52.402412,-1.501198,145.36,7.41,4,298.25,18 / 20,42927,2019-09-07 09:14:08:206,-2.283,-5.9279,9.451,0.0217,0.0125,9.8065,-0.2245,-0.74,0.0377,-31.44,-31.5,6.56,336.78,-85.73,-124.24
52.402412,-1.501198,145.36,7.41,4,298.25,18 / 20,43027,2019-09-07 09:14:08:306,-2.8893,-5.877,9.2572,-0.0362,0.0068,9.8065,-0.1399,-0.7766,0.0436,-30.94,-31.44,7.88,337.82,-85.6,-124.98
52.402412,-1.501198,145.36,7.41,4,298.25,18 / 20,43129,2019-09-07 09:14:08:408,-1.8854,-5.5809,9.3797,-0.0473,0.0023,9.8065,-0.0037,-0.8372,0.1484,-31.62,-30.94,9.19,342.49,-85.66,-121.96
52.402412,-1.501198,145.36,7.41,4,298.25,18 / 19,43227,2019-09-07 09:14:08:506,-3.9711,-7.0988,12.3384,-0.0019,-0.0228,9.8065,-0.1239,-0.8552,0.1269,-31.31,-30.81,10.81,348.08,-85.34,-120.51
52.402412,-1.501198,145.36,7.41,4,298.25,18 / 19,43327,2019-09-07 09:14:08:606,-0.5603,-5.7653,9.7853,-0.0828,0.0435,9.8062,0.0466,-0.7669,-0.1026,-31.12,-30.75,13.06,353.94,-85.37,-118.35
52.402412,-1.501198,145.36,7.41,4,298.25,18 / 19,43427,2019-09-07 09:14:08:706,-1.6719,-5.7846,10.328,0.0594,-0.0295,9.8064,0.1317,-0.8835,0.0825,-31.19,-31.25,14.25,353.25,-85.35,-120.54
52.402412,-1.501198,145.36,7.41,4,298.25,18 / 19,43527,2019-09-07 09:14:08:806,-2.1159,-5.844,9.6742,0.0512,-0.0367,9.8064,-0.2334,-0.816,0.0601,-31.31,-31.5,14.94,351.68,-85,-123.46
52.402412,-1.501198,145.36,7.41,4,298.25,18 / 19,43627,2019-09-07 09:14:08:906,-5.0931,-5.4558,9.7972,-0.0446,0.0228,9.8064,-0.1971,-0.8111,0.0054,-30.5,-31.87,17.56,357.87,-84.99,-122.92
52.402412,-1.501198,145.36,7.41,4,298.25,18 / 19,43727,2019-09-07 09:14:09:006,-5.1956,-3.9419,10.1593,-0.0324,0.0164,9.8065,0.0191,-0.7945,0.0842,-30.31,-30.69,18.56,2.61,-85.12,-119.94
52.402412,-1.501198,145.36,7.41,4,298.25,18 / 19,43827,2019-09-07 09:14:09:106,-2.1193,-4.9014,9.9181,0.0155,-0.0064,9.8066,0.0681,-0.7724,0.009,-29.75,-30.75,20.88,3.74,-85.01,-121.55
52.402412,-1.501198,145.36,7.41,4,298.25,18 / 19,43927,2019-09-07 09:14:09:206,-2.7596,-4.6944,9.3892,-0.0027,-0.0059,9.8066,-0.1231,-0.8813,0.1457,-29.12,-31.37,21.75,6.37,-84.98,-121.32
52.402412,-1.501198,145.36,7.41,4,298.25,18 / 19,44027,2019-09-07 09:14:09:306,-4.5836,-4.3073,10.1727,-0.0292,0.0114,9.8065,-0.137,-0.8729,0.07,-29,-31,22.81,8.07,-84.78,-120.99
52.402412,-1.501198,145.36,7.41,4,298.25,19 / 20,44128,2019-09-07 09:14:09:407,-5.1217,-3.0535,10.2067,-0.0145,0.0059,9.8066,-0.0544,-0.8156,0.0142,-28.25,-30.94,24.94,13.27,-84.8,-119.53
52.402412,-1.501198,145.36,7.41,4,298.25,19 / 20,44227,2019-09-07 09:14:09:506,-4.7851,-4.5713,10.013,0.0179,-0.0265,9.8065,0.0727,-0.828,0.0934,-26.69,-30.56,25.94,14.42,-84.84,-120.62
52.402412,-1.501198,145.36,7.41,4,298.25,19 / 20,44327,2019-09-07 09:14:09:606,-4.9594,-4.2307,10.4072,0.018,-0.0414,9.8065,-0.0652,-0.7834,0.049,-26.31,-31.12,26.94,14.54,-84.47,-122.76
52.402412,-1.501198,145.36,7.41,4,298.25,19 / 20,44428,2019-09-07 09:14:09:707,-5.4809,-2.5664,10.9059,0.0101,0.0041,9.8066,0.0192,-0.7587,0.018,-24.44,-30.94,28,16.36,-84.43,-124.43
52.402412,-1.501198,145.36,7.41,4,298.25,19 / 20,44527,2019-09-07 09:14:09:806,-5.8747,-4.0966,10.6561,0.0107,0.0055,9.8066,-0.071,-0.8627,0.0601,-23.62,-30.62,28.56,16.26,-84.46,-125.48
52.402412,-1.501198,145.36,7.41,4,298.25,19 / 20,44627,2019-09-07 09:14:09:906,-5.8916,-3.334,10.3083,0.0062,-0.0119,9.8065,-0.0556,-0.8669,0.0381,-22.81,-30.94,29.38,17.49,-84.31,-125.6
52.402412,-1.501198,145.36,7.41,4,298.25,19 / 20,44728,2019-09-07 09:14:10:007,-6.6439,-4.9885,9.6235,-0.006,-0.0174,9.8066,-0.0434,-0.9684,0.2292,-21.06,-31.12,30.75,21.15,-84.04,-126.62
52.402412,-1.501198,145.36,7.41,4,298.25,19 / 20,44827,2019-09-07 09:14:10:106,-7.0141,-2.9476,9.5204,-0.0149,0.0051,9.8066,-0.209,-0.9073,0.0279,-20.44,-31.25,31.56,23.17,-83.76,-126.96
52.402412,-1.501198,145.36,7.41,4,298.25,19 / 20,44927,2019-09-07 09:14:10:206,-6.0868,-1.6817,9.9061,-0.0143,-0.0002,9.8066,0.0574,-0.8094,0.042,-18.37,-31.37,32.13,25.39,-83.6,-127.71
52.402412,-1.501198,145.36,7.41,4,298.25,19 / 20,45027,2019-09-07 09:14:10:306,-6.6289,-2.7204,9.9177,0.0086,-0.0334,9.8065,0.0695,-0.9081,0.1127,-17.94,-31.75,32.25,25.3,-83.34,-127.97
52.402412,-1.501198,145.36,7.41,4,298.25,19 / 20,45128,2019-09-07 09:14:10:407,-6.9733,-1.15,10.0349,0.0037,-0.0151,9.8066,-0.0679,-0.8379,0.0697,-16.19,-31.25,33,27.21,-83.11,-129.76
52.402412,-1.501198,145.36,7.41,4,298.25,18 / 19,45227,2019-09-07 09:14:10:506,-6.4429,-1.1133,10.3383,-0.0097,-0.0085,9.8065,-0.0597,-0.7703,0.0482,-14.87,-31.69,32.88,28.36,-82.83,-130.39
52.402412,-1.501198,145.36,7.41,4,298.25,18 / 19,45328,2019-09-07 09:14:10:607,-6.5072,-1.4465,10.132,0.0131,-0.0146,9.8065,-0.0862,-0.7699,0.0174,-13.69,-31.12,33,28.82,-82.74,-131.41
52.402412,-1.501198,145.36,7.41,4,298.25,18 / 19,45427,2019-09-07 09:14:10:706,-6.7066,-0.4224,10.4659,-0.0079,-0.0012,9.8066,0.0014,-0.8611,0.1001,-12.25,-32.12,33,32.32,-82.76,-131.43
52.402412,-1.501198,145.36,7.41,4,298.25,18 / 19,45527,2019-09-07 09:14:10:806,-4.7587,-0.4748,10.1908,0.0098,0.0188,9.8065,-0.0878,-0.85,0.0247,-10.62,-31.44,32.38,33.43,-82.79,-131.45
52.402412,-1.501198,145.36,7.41,4,298.25,18 / 19,45628,2019-09-07 09:14:10:907,-7.2429,-0.2047,9.932,-0.0064,-0.0283,9.8066,-0.12,-0.883,0.089,-9.31,-31.81,32.25,37.38,-82.76,-131.36
52.402412,-1.501198,145.36,7.41,4,298.25,18 / 19,45727,2019-09-07 09:14:11:006,-4.8726,0.1276,8.978,0.0139,0.0071,9.8066,0.0004,-0.833,0.172,-7.94,-32.5,31.25,38.21,-82.76,-132.02
52.402412,-1.501198,145.36,7.41,4,298.25,18 / 19,45827,2019-09-07 09:14:11:106,-7.5618,-0.9285,10.2575,-0.0062,0.0192,9.8066,0.0713,-0.9059,0.1745,-7.06,-32.25,31.69,39.62,-82.56,-132.92
52.402412,-1.501198,145.36,7.41,4,298.25,18 / 19,45927,2019-09-07 09:14:11:206,-6.7401,-0.2773,10.1029,0.0057,-0.0186,9.8066,-0.0402,-0.7444,0.0649,-5.75,-32.75,30.38,40.12,-82.5,-134.03
52.402412,-1.501198,145.36,7.41,4,298.25,18 / 19,46027,2019-09-07 09:14:11:306,-4.9522,1.5045,9.1396,0.0095,-0.011,9.8066,-0.0271,-0.7266,0.0753,-4.06,-32.62,29.69,42.59,-82.44,-135.66
52.402412,-1.501198,145.36,7.41,4,298.25,18 / 19,46127,2019-09-07 09:14:11:406,-7.6749,0.9171,9.79,0.0044,-0.0193,9.8066,-0.1138,-0.7319,0.0189,-4.06,-32.81,28.88,40.97,-82.24,-137.19
52.402412,-1.501198,145.36,7.41,4,298.25,18 / 20,46227,2019-09-07 09:14:11:506,-5.78,2.0048,9.4338,0.0173,0.0357,9.8065,-0.111,-0.765,0.0532,-2.12,-33.12,27.94,45.41,-82.56,-137
52.402412,-1.501198,145.36,7.41,4,298.25,18 / 20,46328,2019-09-07 09:14:11:607,-7.8426,0.9734,10.3477,0.0084,0.035,9.8065,-0.0911,-0.8681,0.0893,-1.81,-33.75,26.63,45.4,-82.64,-137.21
52.402412,-1.501198,145.36,7.41,4,298.25,18 / 20,46427,2019-09-07 09:14:11:706,-6.1012,1.8153,9.3476,0.0163,-0.0173,9.8066,-0.1343,-0.8373,0.024,-0.5,-33.12,25.44,49.25,-82.65,-138.37
52.402412,-1.501198,145.36,7.41,4,298.25,18 / 20,46528,2019-09-07 09:14:11:807,-5.4945,1.5614,9.805,-0.0028,-0.0134,9.8066,0.0727,-0.8509,0.0803,0,-33.87,24.31,47.56,-82.65,-140.4
52.402412,-1.501198,145.36,7.41,4,298.25,18 / 20,46628,2019-09-07 09:14:11:907,-6.8817,0.9036,10.0634,0.0147,-0.0127,9.8066,-0.02,-0.8439,0.0271,0.75,-33.69,22.56,50.31,-82.62,-140.84
52.402412,-1.501198,145.36,7.41,4,298.25,18 / 20,46728,2019-09-07 09:14:12:007,-5.9155,2.151,8.8266,0.0271,0.0012,9.8066,-0.1456,-0.6753,0.0018,1.44,-33.87,21.94,48.61,-82.77,-142.64
52.402412,-1.501198,145.36,7.41,4,298.25,18 / 20,46828,2019-09-07 09:14:12:107,-6.5987,2.8722,9.2629,0.0113,0.0337,9.8066,-0.1502,-0.8486,0.1476,2.69,-34.19,19.75,54.69,-83.23,-143.38
52.402412,-1.501198,145.36,7.41,4,298.25,18 / 20,46927,2019-09-07 09:14:12:206,-7.6139,3.3481,9.6239,0.0129,0.0182,9.8066,-0.0977,-0.8706,0.1291,2.56,-34.31,17.81,56.02,-83.34,-143.99
52.402412,-1.501198,145.36,7.41,4,298.25,18 / 20,47027,2019-09-07 09:14:12:306,-3.8524,1.6816,9.4081,0.0386,0.0004,9.8066,-0.0134,-0.6948,-0.1744,2.75,-34.5,16.44,56.94,-83.45,-145.42
52.402412,-1.501198,145.36,7.41,4,298.25,18 / 20,47127,2019-09-07 09:14:12:406,-4.747,4.058,9.4612,-0.0048,0.017,9.8066,-0.0261,-0.8533,0.1364,3.13,-35.12,15.06,57.5,-83.62,-146.41
52.402412,-1.501198,145.36,7.41,4,298.25,18 / 19,47227,2019-09-07 09:14:12:506,-6.9934,4.2193,10.6047,-0.0265,-0.0115,9.8065,-0.1197,-0.7737,0.1185,2.44,-35,13.44,58.4,-83.38,-145.73
52.402412,-1.501198,145.36,7.41,4,298.25,18 / 19,47327,2019-09-07 09:14:12:606,-7.2465,3.5397,9.7855,0.0068,-0.0192,9.8066,0.0001,-0.9438,0.2297,2.44,-34.69,12.25,58.39,-83.23,-148.14
52.402412,-1.501198,145.36,7.41,4,298.25,18 / 19,47427,2019-09-07 09:14:12:706,-5.6704,5.7095,10.4292,-0.028,0.0043,9.8065,0.0007,-0.9124,0.2243,2.06,-35.06,10.38,69,-82.91,-145.92
52.402412,-1.501198,145.36,7.41,4,298.25,18 / 19,47528,2019-09-07 09:14:12:807,-4.8529,5.7374,9.6939,0.0139,-0.0032,9.8066,-0.0461,-0.7429,-0.0337,1.69,-34.81,8.31,79.5,-83.03,-145.3
52.402412,-1.501198,145.36,7.41,4,298.25,18 / 19,47627,2019-09-07 09:14:12:906,-4.2748,3.6821,9.7165,-0.0071,0.0035,9.8066,0.0014,-0.811,0.0742,1.06,-35.44,7.38,78.07,-83.22,-145.3
52.402412,-1.501198,145.36,7.41,4,298.25,18 / 19,47727,2019-09-07 09:14:13:006,-3.2297,6.37,10.2548,-0.0245,-0.011,9.8066,-0.1745,-0.7641,0.0466,0.88,-35.25,5.75,91.12,-82.95,-143.72
52.402412,-1.501198,145.36,7.41,4,298.25,18 / 19,47827,2019-09-07 09:14:13:106,0.1715,5.7655,9.4138,-0.0119,-0.0124,9.8066,-0.172,-0.775,0.0838,-0.06,-35.44,3.75,113.25,-83.06,-144.46
52.402412,-1.501198,145.36,7.41,4,298.25,18 / 19,47927,2019-09-07 09:14:13:206,1.4894,5.5103,10.3323,0.0025,-0.0087,9.8066,-0.0245,-0.8785,0.1589,-0.25,-36.06,2.5,137.4,-83.1,-144.17
52.402412,-1.501198,145.36,7.41,4,298.25,18 / 19,48027,2019-09-07 09:14:13:306,6.9828,1.7859,9.8041,-0.0061,0.0113,9.8066,-0.122,-0.8292,0.1806,-2.19,-36.62,1.13,202.32,-83.06,-143.87
52.402412,-1.501198,145.36,7.41,4,298.25,18 / 19,48127,2019-09-07 09:14:13:406,5.3831,0.3739,10.4075,-0.022,-0.0696,9.8064,0.119,-0.8419,0.0859,-2.5,-36.94,0.88,202.24,-83.18,-142.55
52.402412,-1.501198,145.36,7.41,4,298.25,18 / 19,48227,2019-09-07 09:14:13:506,6.2934,-2.6371,9.7671,-0.0184,-0.0679,9.8063,0.0616,-0.8301,0.0575,-4.06,-37,0.31,237.53,-83.15,-143.36
52.402412,-1.501198,145.36,7.41,4,298.25,18 / 19,48327,2019-09-07 09:14:13:606,7.3937,-3.5247,9.9912,0.0505,0.0537,9.8063,-0.1388,-0.6822,-0.007,-5.5,-37.25,-0.19,249.26,-83.07,-143.72
52.402412,-1.501198,145.36,7.41,4,298.25,18 / 19,48427,2019-09-07 09:14:13:706,6.8527,-4.1558,9.8871,-0.0245,0.0131,9.8065,-0.036,-0.8151,0.1161,-5.87,-36.37,-0.81,251.77,-83.05,-145.64
52.402412,-1.501198,145.36,7.41,4,298.25,18 / 19,48527,2019-09-07 09:14:13:806,3.6789,-4.6114,9.1382,-0.0018,-0.0059,9.8065,-0.2245,-0.8278,0.0941,-7.06,-36.37,-1.56,254.35,-83.16,-144.99
52.402412,-1.501198,145.36,7.41,4,298.25,18 / 19,48627,2019-09-07 09:14:13:906,3.5837,-6.0904,9.1511,-0.0383,-0.0129,9.8065,-0.1521,-0.7605,0.0876,-8.12,-35.69,-2.25,262.96,-83.46,-143.26
52.402412,-1.501198,145.36,7.41,4,298.25,18 / 19,48728,2019-09-07 09:14:14:007,5.22,-4.7314,9.8233,-0.0127,-0.0038,9.8066,-0.0219,-0.8647,0.1091,-9.06,-35.62,-3.94,260.23,-83.6,-142.05
52.402412,-1.501198,145.36,7.41,4,298.25,18 / 19,48827,2019-09-07 09:14:14:106,5.0058,-5.0643,9.0944,-0.016,-0.0003,9.8066,-0.0604,-0.8444,0.0716,-10.31,-34.69,-4.62,261.6,-83.7,-141.89
52.402412,-1.501198,145.36,7.41,4,298.25,18 / 19,48928,2019-09-07 09:14:14:207,2.8663,-5.5149,9.6109,-0.0219,-0.0162,9.8066,-0.0607,-0.7925,0.0731,-11.69,-35.19,-5.12,268.76,-83.83,-141.72
52.402412,-1.501198,145.36,7.41,4,298.25,18 / 19,49027,2019-09-07 09:14:14:306,3.2916,-4.9006,9.1443,-0.0325,-0.0163,9.8065,-0.1097,-0.7703,0.0205,-12,-34,-5.44,271.46,-84.11,-140.28
52.402412,-1.501198,145.36,7.41,4,298.25,18 / 19,49127,2019-09-07 09:14:14:406,3.1431,-5.286,8.2045,-0.0214,0.0057,9.8066,-0.1639,-0.6971,-0.013,-13.56,-34.56,-6.12,272.58,-84.39,-141.18
52.402466,-1.501314,143.9,8.14,4,353.53,18 / 19,49227,2019-09-07 09:14:14:506,3.2405,-5.6868,9.3586,-0.01,-0.0431,9.8065,-0.053,-0.7873,0.1448,-15.25,-34.62,-6.31,278.17,-84.64,-138.4
52.402466,-1.501314,143.9,8.14,4,353.53,18 / 19,49328,2019-09-07 09:14:14:607,2.7114,-6.936,10.0718,-0.0067,0.0037,9.8066,-0.1943,-0.863,0.1008,-17.81,-34.12,-5.87,287.61,-84.6,-134.6
52.402466,-1.501314,143.9,8.14,4,353.53,18 / 19,49427,2019-09-07 09:14:14:706,1.027,-5.6997,9.4707,-0.0065,0.0001,9.8065,-0.1465,-0.782,0.0531,-19.12,-33.87,-6.44,291.26,-84.76,-132.76
52.402466,-1.501314,143.9,8.14,4,353.53,18 / 19,49527,2019-09-07 09:14:14:806,2.3383,-5.9403,9.8859,-0.0035,-0.0264,9.8066,-0.009,-0.8438,0.0876,-20,-32.69,-6,295.7,-84.75,-129.99
52.402466,-1.501314,143.9,8.14,4,353.53,18 / 19,49627,2019-09-07 09:14:14:906,1.9655,-6.6688,8.9851,0.004,0.005,9.8066,-0.0579,-0.839,0.0257,-21.69,-33.25,-5.62,299.43,-84.6,-128.37
52.402466,-1.501314,143.9,8.14,4,353.53,18 / 19,49727,2019-09-07 09:14:15:006,0.4532,-5.3675,9.2602,-0.04,-0.0101,9.8065,-0.0168,-0.6989,0.0148,-22.5,-32.69,-4.62,302.79,-84.82,-127.91
52.402466,-1.501314,143.9,8.14,4,353.53,18 / 19,49827,2019-09-07 09:14:15:106,1.4786,-6.5856,10.0793,-0.0365,-0.0204,9.8065,-0.0413,-0.8186,0.0714,-24.56,-32.5,-4,310.06,-84.89,-125.78
52.402466,-1.501314,143.9,8.14,4,353.53,18 / 19,49927,2019-09-07 09:14:15:206,-0.9486,-5.2903,9.6896,0.0132,0.0137,9.8066,-0.2462,-0.6954,-0.042,-24.56,-32.25,-3.5,314.73,-85.02,-123.81
52.402466,-1.501314,143.9,8.14,4,353.53,18 / 19,50028,2019-09-07 09:14:15:307,-0.2453,-7.2071,9.7777,0.0267,-0.003,9.8065,-0.2256,-0.7733,0.0598,-26.12,-32,-2.44,317.31,-85.1,-124.1
52.402466,-1.501314,143.9,8.14,4,353.53,18 / 19,50128,2019-09-07 09:14:15:407,1.0965,-7.1676,9.5814,-0.0257,-0.0029,9.8066,-0.0471,-0.8075,0.0471,-27.06,-32.25,-0.81,322.58,-85.2,-121.75
52.402466,-1.501314,143.9,8.14,4,353.53,18 / 19,50227,2019-09-07 09:14:15:506,0.4964,-6.8476,10.0437,0.0304,-0.0167,9.8066,-0.1037,-0.762,0.0014,-27.56,-32.25,-0.31,325.01,-85.2,-121.75
52.402466,-1.501314,143.9,8.14,4,353.53,18 / 19,50327,2019-09-07 09:14:15:606,-0.0457,-5.3935,9.7482,0.0313,0.003,9.8065,-0.1663,-0.7388,-0.0369,-28.87,-31.94,0.81,325.72,-84.97,-123.03
52.402466,-1.501314,143.9,8.14,4,353.53,18 / 19,50428,2019-09-07 09:14:15:707,0.0723,-6.9643,9.9981,0.0153,0.0029,9.8065,-0.0981,-0.7879,0.0281,-29.12,-32.5,2.44,327.46,-85.15,-123.53
52.402466,-1.501314,143.9,8.14,4,353.53,18 / 19,50527,2019-09-07 09:14:15:806,-1.4587,-5.8166,9.8341,0.0198,-0.0081,9.8066,-0.1094,-0.7297,0.0022,-29.94,-31.75,4.06,331.54,-85.09,-123.49
52.402466,-1.501314,143.9,8.14,4,353.53,18 / 19,50627,2019-09-07 09:14:15:906,-0.6413,-5.9939,9.3656,0.0048,0.0068,9.8066,-0.021,-0.8698,0.0842,-30.25,-32.06,5.75,335.68,-85.19,-123.48
52.402466,-1.501314,143.9,8.14,4,353.53,18 / 19,50727,2019-09-07 09:14:16:006,-1.5284,-5.8134,9.7727,0.0033,-0.0024,9.8066,-0.0967,-0.8171,0.0859,-30.94,-32.31,6.75,336.45,-85.18,-124.26
52.402466,-1.501314,143.9,8.14,4,353.53,18 / 19,50827,2019-09-07 09:14:16:106,-0.4531,-6.4933,9.7888,0.0217,-0.0055,9.8066,-0.0822,-0.7878,0.0365,-31.56,-31.37,8.5,339.73,-85.22,-124.37
52.402466,-1.501314,143.9,8.14,4,353.53,18 / 19,50928,2019-09-07 09:14:16:207,-1.266,-8.3271,9.8958,0.027,-0.0147,9.8065,0.061,-0.9021,0.0606,-31.19,-31.56,9.56,341.12,-85.06,-125.12
52.402466,-1.501314,143.9,8.14,4,353.53,18 / 19,51027,2019-09-07 09:14:16:306,-2.7812,-5.678,9.863,-0.0197,0.01,9.8065,-0.0737,-0.8588,0.0894,-32,-31,11.81,344.34,-85.11,-124.97
52.402466,-1.501314,143.9,8.14,4,353.53,18 / 19,51127,2019-09-07 09:14:16:406,-3.408,-5.5954,9.8241,-0.0118,-0.0042,9.8065,-0.0184,-0.8469,0.1027,-31.37,-31.25,13.06,345.42,-85,-126.11
52.402466,-1.501314,143.9,8.14,4,353.53,18 / 19,51227,2019-09-07 09:14:16:506,-4.5596,-4.8077,9.942,-0.0082,-0.0062,9.8066,0.0014,-0.8074,0.1006,-31.25,-30.44,15.25,350.02,-84.86,-124.98
52.402466,-1.501314,143.9,8.14,4,353.53,18 / 19,51327,2019-09-07 09:14:16:606,-2.0455,-5.3447,10.3814,-0.0251,-0.0353,9.8065,0.0787,-0.7219,-0.1148,-31.06,-30.69,16.63,354.47,-84.57,-123.78
52.402466,-1.501314,143.9,8.14,4,353.53,18 / 19,51427,2019-09-07 09:14:16:706,-3.5154,-4.704,10.2341,-0.0106,0.0153,9.8065,-0.202,-0.6907,-0.0659,-30.5,-30.81,18.06,355.85,-84.69,-124.75
52.402466,-1.501314,143.9,8.14,4,353.53,18 / 19,51527,2019-09-07 09:14:16:806,-5.0397,-4.1118,10.6089,-0.0157,0.0107,9.8066,-0.1296,-0.7749,0.0028,-30.44,-31.19,19,357.94,-84.88,-124.24
52.402466,-1.501314,143.9,8.14,4,353.53,18 / 19,51627,2019-09-07 09:14:16:906,-4.1453,-4.7606,9.666,0.0021,-0.0094,9.8066,-0.0739,-0.7976,0.1009,-29.19,-30.75,20.5,1.1,-84.99,-124.9
52.402466,-1.501314,143.9,8.14,4,353.53,18 / 19,51727,2019-09-07 09:14:17:006,-5.3605,-5.4841,9.9731,-0.0074,0.003,9.8066,-0.048,-0.8452,0.1221,-29.87,-31.44,22.19,2.07,-84.89,-124.35
52.402466,-1.501314,143.9,8.14,4,353.53,18 / 19,51827,2019-09-07 09:14:17:106,-5.0373,-4.0117,10.206,0.0252,-0.0086,9.8066,-0.1252,-0.8394,0.1043,-28.25,-30.94,23.44,3.79,-84.86,-125.91
52.402466,-1.501314,143.9,8.14,4,353.53,18 / 19,51927,2019-09-07 09:14:17:206,-6.1065,-3.5932,9.8854,0.0178,-0.0195,9.8065,-0.1499,-0.8373,0.0167,-27.44,-31.19,24.56,7.83,-84.79,-125.59
52.402466,-1.501314,143.9,8.14,4,353.53,18 / 19,52028,2019-09-07 09:14:17:307,-4.6995,-3.3766,9.4942,0.0026,-0.0028,9.8065,0.0501,-0.9331,0.0665,-26.94,-31.19,25.81,8.91,-84.58,-125.74
52.402466,-1.501314,143.9,8.14,4,353.53,18 / 20,52128,2019-09-07 09:14:17:407,-6.592,-3.8268,11.0495,0.0014,-0.0301,9.8065,-0.0128,-0.8874,0.0984,-25.5,-31,27.63,13.25,-84.41,-126.11
52.402466,-1.501314,143.9,8.14,4,353.53,18 / 20,52227,2019-09-07 09:14:17:506,-4.9693,-4.0593,10.3502,0.0039,0.0055,9.8066,-0.0589,-0.7824,0.0875,-24.44,-31,28.19,12.74,-84.15,-127.81
52.402466,-1.501314,143.9,8.14,4,353.53,18 / 20,52327,2019-09-07 09:14:17:606,-7.2352,-3.7846,10.6508,0.0031,-0.0136,9.8066,-0.1037,-0.9322,0.1361,-23.37,-31.19,29.13,14.45,-84.07,-128.45
52.402466,-1.501314,143.9,8.14,4,353.53,18 / 20,52428,2019-09-07 09:14:17:707,-6.4839,-2.9091,10.077,-0.0016,0.0082,9.8065,-0.0124,-0.8552,-0.0593,-21.94,-30.56,30.94,18.73,-83.83,-127.62
52.402466,-1.501314,143.9,8.14,4,353.53,18 / 20,52527,2019-09-07 09:14:17:806,-6.2336,-3.3547,10.1263,-0.0061,0.0006,9.8066,0.0491,-0.8138,0.0303,-20.81,-31.5,31.25,19.27,-83.77,-128.42
52.402466,-1.501314,143.9,8.14,4,353.53,18 / 20,52628,2019-09-07 09:14:17:907,-6.2841,-3.4378,10.6452,-0.0051,-0.0156,9.8065,-0.069,-0.8053,0.0536,-19.25,-31.12,31.19,21.9,-83.66,-128.73
52.402466,-1.501314,143.9,8.14,4,353.53,18 / 20,52727,2019-09-07 09:14:18:006,-5.094,-3.4691,9.2932,0.0027,0.0041,9.8066,0.0233,-0.8053,0.0606,-18.31,-31.87,32.25,23.58,-83.55,-129.45
52.402466,-1.501314,143.9,8.14,4,353.53,18 / 20,52827,2019-09-07 09:14:18:106,-6.8396,-2.3627,10.0392,-0.0176,-0.0083,9.8066,-0.0131,-0.8274,0.099,-16.5,-31.31,32.5,26.29,-83.37,-130.47
52.402466,-1.501314,143.9,8.14,4,353.53,18 / 20,52927,2019-09-07 09:14:18:206,-5.8604,-2.153,10.4134,-0.0001,-0.0031,9.8066,0.0383,-0.7413,0.0468,-15.62,-30.81,33.06,26.35,-83.04,-130.56
52.402466,-1.501314,143.9,8.14,4,353.53,18 / 20,53027,2019-09-07 09:14:18:306,-6.2925,-2.0889,10.0694,0.0021,-0.0023,9.8066,-0.1175,-0.7769,0.0356,-14.56,-31.87,33.63,28.7,-82.9,-130.61
52.402466,-1.501314,143.9,8.14,4,353.53,18 / 20,53128,2019-09-07 09:14:18:407,-6.716,-0.5739,9.3931,-0.0072,-0.004,9.8066,-0.097,-0.8141,0.0767,-12.56,-31,33.06,31.02,-82.82,-130.92
52.402466,-1.501314,143.9,8.14,4,353.53,18 / 19,53227,2019-09-07 09:14:18:506,-6.8797,-1.5251,10.1897,-0.0028,0.0054,9.8066,-0.147,-0.7713,0.054,-11.62,-32.06,32.75,32.98,-82.73,-130.86
52.402466,-1.501314,143.9,8.14,4,353.53,18 / 19,53327,2019-09-07 09:14:18:606,-6.8706,0.3708,9.9015,-0.0222,0.012,9.8065,-0.1758,-0.8115,0.1028,-10.31,-32.56,32.81,36.59,-82.65,-130.98
52.402466,-1.501314,143.9,8.14,4,353.53,18 / 19,53427,2019-09-07 09:14:18:706,-6.5042,0.1797,9.7888,-0.0004,0.024,9.8066,-0.0531,-0.8448,0.0115,-9.19,-32.12,31.63,39.58,-82.6,-129.49
52.402466,-1.501314,143.9,8.14,4,353.53,18 / 19,53527,2019-09-07 09:14:18:806,-6.0695,0.0919,9.9177,-0.003,-0.0064,9.8066,0.0083,-0.8604,0.1237,-7.56,-32.87,31.06,38.23,-82.87,-132.07
52.402466,-1.501314,143.9,8.14,4,353.53,18 / 19,53627,2019-09-07 09:14:18:906,-7.9861,-0.4107,10.9197,-0.019,-0.0076,9.8065,0.0709,-0.7682,0.1321,-6.19,-32.81,29.88,42.51,-82.49,-131.92
52.402466,-1.501314,143.9,8.14,4,353.53,18 / 19,53727,2019-09-07 09:14:19:006,-6.0504,-0.0301,10.7568,0.0231,-0.0051,9.8066,-0.1428,-0.7903,0.0356,-4.5,-33.12,29.88,45.14,-82.42,-133.39
52.402466,-1.501314,143.9,8.14,4,353.53,18 / 19,53829,2019-09-07 09:14:19:108,-6.8717,1.3617,10.5677,-0.0081,0.001,9.8066,-0.0172,-0.7695,0.0567,-3.69,-33.31,29.94,43.04,-82.52,-135.19
52.402466,-1.501314,143.9,8.14,4,353.53,18 / 19,53927,2019-09-07 09:14:19:206,-5.8504,-0.0792,10.0913,0.0155,-0.0416,9.8065,-0.0953,-0.9479,0.0395,-2.44,-32.94,28.38,45.82,-82.25,-136.92
52.402466,-1.501314,143.9,8.14,4,353.53,18 / 19,54027,2019-09-07 09:14:19:306,-5.9045,2.3311,10.0377,0.0131,-0.0233,9.8066,-0.0749,-0.8496,0.0935,-1.31,-33.94,27.13,47.98,-82.45,-137.24
52.402466,-1.501314,143.9,8.14,4,353.53,18 / 19,54127,2019-09-07 09:14:19:406,-5.9978,1.9225,10.1383,0.0072,-0.0011,9.8066,-0.1115,-0.8642,0.0747,-1.25,-33.44,26.13,48.39,-82.56,-136.74
52.402466,-1.501314,143.9,8.14,4,353.53,18 / 19,54227,2019-09-07 09:14:19:506,-6.7178,1.8161,9.3482,0.0193,-0.0006,9.8065,-0.0849,-0.8216,0.0881,0,-33.87,24.44,50.43,-82.67,-137.84
52.402466,-1.501314,143.9,8.14,4,353.53,18 / 19,54328,2019-09-07 09:14:19:607,-5.8774,2.7209,10.2219,0.0017,-0.0134,9.8066,-0.0111,-0.8385,0.0542,0.56,-34.06,23.19,53.11,-82.63,-138.36
52.402466,-1.501314,143.9,8.14,4,353.53,18 / 19,54427,2019-09-07 09:14:19:706,-6.5679,1.9494,10.0237,0.0253,-0.0154,9.8066,0.0152,-0.8245,0.0064,1.31,-34.19,22.19,52.46,-82.68,-139.39
52.402466,-1.501314,143.9,8.14,4,353.53,18 / 19,54527,2019-09-07 09:14:19:806,-6.7327,3.2186,9.4995,0.0291,-0.0068,9.8065,-0.0927,-0.7622,-0.0202,2.44,-34.75,20.25,53.43,-83.03,-142.3
52.402466,-1.501314,143.9,8.14,4,353.53,18 / 19,54627,2019-09-07 09:14:19:906,-5.6511,1.799,9.7493,0.018,0.029,9.8066,-0.1204,-0.7576,0.0687,2.5,-34.19,18.69,56.23,-83.42,-142.66
52.402466,-1.501314,143.9,8.14,4,353.53,18 / 19,54727,2019-09-07 09:14:20:006,-9.6143,2.7873,10.3309,0.0207,0.0043,9.8066,-0.3051,-0.8387,0.0287,3,-34.69,16.63,57.26,-83.58,-143.96
52.402466,-1.501314,143.9,8.14,4,353.53,18 / 19,54827,2019-09-07 09:14:20:106,-3.401,4.0711,9.4381,0.0516,0.0036,9.8064,-0.1678,-0.7358,-0.0692,3.31,-34.19,15.44,58.63,-83.76,-144.78
52.402466,-1.501314,143.9,8.14,4,353.53,18 / 19,54927,2019-09-07 09:14:20:206,-5.3152,3.3369,9.7476,-0.0467,-0.0234,9.8064,-0.2053,-0.9497,0.2122,2.38,-34.69,13.75,53.82,-83.57,-147.47
52.402466,-1.501314,143.9,8.14,4,353.53,18 / 19,55027,2019-09-07 09:14:20:306,-6.6245,4.8713,9.1608,-0.0029,0.054,9.8065,-0.0532,-0.96,0.1799,3,-34.5,12.81,60,-83.31,-148.13
52.402466,-1.501314,143.9,8.14,4,353.53,19 / 20,55127,2019-09-07 09:14:20:406,-5.6325,5.524,9.6475,0.0201,0.0239,9.8066,0.0121,-0.8161,0.0168,2,-34.75,11.56,58.91,-83.37,-147.34
52.402466,-1.501314,143.9,8.14,4,353.53,19 / 20,55227,2019-09-07 09:14:20:506,-5.4213,4.8128,10.0092,-0.033,-0.0237,9.8065,0.0153,-0.8811,0.0873,2.25,-35.37,9.56,68.83,-83.08,-145.44
52.402466,-1.501314,143.9,8.14,4,353.53,19 / 20,55328,2019-09-07 09:14:20:607,-4.0058,4.3574,9.4077,-0.0239,-0.0256,9.8065,-0.1076,-0.8027,0.0935,0.88,-35.5,7.56,73.23,-83.09,-144.25
52.402466,-1.501314,143.9,8.14,4,353.53,19 / 20,55427,2019-09-07 09:14:20:706,-3.7522,5.745,9.9048,0.0074,0.0207,9.8066,-0.0572,-0.803,0.1444,1.13,-35.31,6.88,79.94,-83.17,-143.99
52.402466,-1.501314,143.9,8.14,4,353.53,19 / 20,55527,2019-09-07 09:14:20:806,-3.4126,5.9921,10.0217,0.0009,0.0047,9.8066,-0.0916,-0.7765,0.1155,0,-35.44,5.19,94.18,-83.16,-142.6
52.402466,-1.501314,143.9,8.14,4,353.53,19 / 20,55627,2019-09-07 09:14:20:906,-0.4948,5.616,9.6543,0.0057,-0.007,9.8066,-0.1125,-0.6996,0.0375,-0.5,-36,3.69,114.88,-83.17,-142.68
52.402466,-1.501314,143.9,8.14,4,353.53,19 / 20,55727,2019-09-07 09:14:21:006,6.1324,1.5131,9.89,-0.0073,0.0093,9.8066,0.013,-0.8824,0.1677,-1.62,-36.5,1.63,194.56,-83.19,-142.83
52.402466,-1.501314,143.9,8.14,4,353.53,19 / 20,55827,2019-09-07 09:14:21:106,8.7531,-2.254,10.8952,0.0192,0.0031,9.8065,-0.0291,-0.8929,0.1499,-3.06,-36.81,0.69,223.11,-83.07,-141.1
52.402466,-1.501314,143.9,8.14,4,353.53,19 / 20,55927,2019-09-07 09:14:21:206,7.4411,0.4675,10.7291,-0.0228,-0.0402,9.8064,0.0653,-0.8185,0.0808,-3.5,-36.75,0.38,223.52,-83.28,-141.25
52.402466,-1.501314,143.9,8.14,4,353.53,19 / 20,56028,2019-09-07 09:14:21:307,5.5655,-2.007,8.6035,0.0917,0.1166,9.8055,0.2305,-0.7512,0.0753,-4.94,-37.75,-0.06,251.56,-83.35,-141.35
52.402466,-1.501314,143.9,8.14,4,353.53,18 / 19,56127,2019-09-07 09:14:21:406,4.2074,-6.0816,9.5831,0.0716,0.1028,9.8058,-0.0805,-0.7845,0.0319,-5.69,-36.69,-0.69,248.65,-82.69,-145.5
52.402466,-1.501314,143.9,8.14,4,353.53,18 / 19,56227,2019-09-07 09:14:21:506,3.7969,-4.881,9.6785,-0.0313,-0.0427,9.8064,-0.127,-0.6967,0.0333,-6.44,-36.75,-1.12,250.28,-82.86,-144.6
52.402466,-1.501314,143.9,8.14,4,353.53,18 / 19,56327,2019-09-07 09:14:21:606,3.1728,-4.7587,9.8484,-0.0382,-0.0271,9.8065,-0.2105,-0.7286,0.0203,-7.56,-35.5,-2.44,263.56,-83.32,-142.86
52.402466,-1.501314,143.9,8.14,4,353.53,18 / 19,56427,2019-09-07 09:14:21:706,3.4527,-4.8716,10.0127,-0.0026,-0.0108,9.8066,-0.1544,-0.7453,0.0787,-9.56,-35.12,-3.56,263.84,-83.53,-142.91
52.402466,-1.501314,143.9,8.14,4,353.53,18 / 19,56527,2019-09-07 09:14:21:806,3.8822,-4.451,9.7779,-0.0144,-0.0091,9.8066,-0.1144,-0.7859,0.0724,-9,-35.44,-4.25,261.33,-83.69,-141.92
52.402466,-1.501314,143.9,8.14,4,353.53,18 / 19,56628,2019-09-07 09:14:21:907,2.6958,-5.8617,9.734,-0.0162,-0.017,9.8066,-0.1271,-0.8428,0.1293,-11.19,-34.87,-4.44,270.31,-83.82,-140.81
52.402466,-1.501314,143.9,8.14,4,353.53,18 / 19,56727,2019-09-07 09:14:22:006,2.864,-4.6892,10.0457,-0.0168,-0.017,9.8066,-0.1067,-0.7542,0.0232,-12.44,-35.25,-4.94,270.45,-83.92,-140.26
52.402466,-1.501314,143.9,8.14,4,353.53,18 / 19,56827,2019-09-07 09:14:22:106,2.2178,-6.5131,10.4907,-0.0203,0.0138,9.8065,-0.1373,-0.8206,0.031,-13.62,-34.06,-5.25,276.95,-84.19,-140
52.402466,-1.501314,143.9,8.14,4,353.53,18 / 19,56928,2019-09-07 09:14:22:207,3.7597,-5.7222,9.0199,-0.0196,-0.0046,9.8065,-0.1772,-0.6519,0.0295,-15.25,-33.94,-6.25,276.14,-84.52,-140.45
52.402466,-1.501314,143.9,8.14,4,353.53,18 / 19,57027,2019-09-07 09:14:22:306,3.7973,-6.4695,9.8433,-0.0133,-0.0377,9.8065,-0.1444,-0.8351,0.1303,-16.25,-34,-6.56,277.93,-84.44,-137.6
52.402466,-1.501314,143.9,8.14,4,353.53,18 / 19,57128,2019-09-07 09:14:22:407,3.2909,-7.2746,10.5993,0.0048,-0.0045,9.8066,-0.1227,-0.8181,0.0294,-18.56,-34.06,-6.31,290.47,-84.53,-133.12
52.402466,-1.501314,143.9,8.14,4,353.53,18 / 19,57227,2019-09-07 09:14:22:506,1.7245,-5.5432,9.3154,-0.0043,-0.0028,9.8066,-0.1321,-0.6998,0.0451,-18.94,-33.44,-5.12,295.09,-84.69,-131.96
52.402466,-1.501314,143.9,8.14,4,353.53,18 / 19,57327,2019-09-07 09:14:22:606,2.8051,-5.6766,9.9297,-0.0202,-0.0268,9.8065,0.1033,-0.7738,0.0261,-20.94,-33,-5.25,300.86,-84.58,-128.5
52.402466,-1.501314,143.9,8.14,4,353.53,18 / 19,57427,2019-09-07 09:14:22:706,2.5605,-6.8253,9.2658,-0.0469,0.0119,9.8065,0.1022,-0.8362,0.0848,-21.81,-32.87,-4.62,301.98,-84.73,-128.55
52.402466,-1.501314,143.9,8.14,4,353.53,18 / 19,57527,2019-09-07 09:14:22:806,0.7656,-6.606,9.5091,-0.0224,-0.0214,9.8065,-0.1358,-0.7156,0.0844,-22.94,-33.31,-4.37,305.29,-84.86,-128.78
52.402466,-1.501314,143.9,8.14,4,353.53,18 / 19,57627,2019-09-07 09:14:22:906,0.7881,-7.8252,10.031,-0.0258,-0.0018,9.8066,-0.0912,-0.7442,-0.0103,-24.19,-31.87,-3.69,310.4,-84.97,-124.98
52.402466,-1.501314,143.9,8.14,4,353.53,18 / 19,57728,2019-09-07 09:14:23:007,0.2449,-7.2627,10.2446,0.0015,-0.0065,9.8066,0.004,-0.7137,0.0496,-25,-32.94,-2.69,314.26,-85.18,-124.27
52.402466,-1.501314,143.9,8.14,4,353.53,18 / 19,57827,2019-09-07 09:14:23:106,1.3335,-5.682,9.902,0.0032,-0.0134,9.8065,0.0262,-0.7376,-0.0148,-26.31,-32.19,-2.69,316.25,-85.1,-122.92
52.402466,-1.501314,143.9,8.14,4,353.53,18 / 19,57927,2019-09-07 09:14:23:206,0.1366,-6.1969,9.4956,-0.0098,0.0006,9.8066,-0.0764,-0.7665,0.0804,-27.19,-32.19,-0.25,323.4,-85.22,-123.12
52.402466,-1.501314,143.9,8.14,4,353.53,18 / 19,58027,2019-09-07 09:14:23:306,0.5414,-6.7394,10.286,-0.0038,-0.0096,9.8066,-0.0734,-0.8773,0.1192,-28.25,-31.69,-0.44,323.58,-85.14,-123.02
52.402466,-1.501314,143.9,8.14,4,353.53,19 / 20,58127,2019-09-07 09:14:23:406,0.1242,-5.0776,9.4261,0.0102,0.0216,9.8065,-0.0355,-0.8596,0.0376,-28.06,-31.62,1.31,325.88,-85.11,-122.94
52.40256,-1.501301,143.04,7.56,4,48.73,19 / 20,58227,2019-09-07 09:14:23:506,0.0494,-6.5495,9.6448,-0.0016,0.0119,9.8066,0.0297,-0.8351,0.0351,-29.5,-32.19,2.25,326.56,-85.25,-124.41
52.40256,-1.501301,143.04,7.56,4,48.73,19 / 20,58327,2019-09-07 09:14:23:606,-1.3614,-5.9151,9.8493,-0.0213,0.0084,9.8066,-0.0431,-0.7883,0.0421,-29.5,-32.31,4,330.36,-85.17,-124.79
52.40256,-1.501301,143.04,7.56,4,48.73,19 / 20,58427,2019-09-07 09:14:23:706,-1.6839,-6.7794,9.378,-0.0171,0.0048,9.8065,-0.0139,-0.8085,0.0594,-30.44,-32.44,5.63,334.78,-85.27,-124.34
52.40256,-1.501301,143.04,7.56,4,48.73,19 / 20,58527,2019-09-07 09:14:23:806,-0.6121,-7.2943,9.5266,0.0295,-0.0124,9.8065,-0.2715,-0.7619,-0.0099,-30.44,-31.44,7,334.81,-85.14,-126.17
52.40256,-1.501301,143.04,7.56,4,48.73,19 / 20,58627,2019-09-07 09:14:23:906,-2.1811,-6.1705,10.4994,0.01,-0.0035,9.8066,-0.1935,-0.8032,0.0301,-31.06,-31.56,8.25,336.56,-85.2,-125.93
52.40256,-1.501301,143.04,7.56,4,48.73,19 / 20,58727,2019-09-07 09:14:24:006,-1.8888,-6.5964,9.7196,0.0149,0.0104,9.8065,0.0062,-0.8279,0.086,-30.94,-31.69,10,340.06,-85.14,-126.13
52.40256,-1.501301,143.04,7.56,4,48.73,19 / 20,58827,2019-09-07 09:14:24:106,-2.1389,-5.8324,9.4977,0.01,-0.0216,9.8065,-0.0434,-0.7826,0.0856,-31.5,-31.75,11.25,340.93,-85.02,-126.95
52.40256,-1.501301,143.04,7.56,4,48.73,19 / 20,58927,2019-09-07 09:14:24:206,-3.6983,-4.4145,9.4674,-0.0099,0.0172,9.8066,0.0175,-0.8407,0.0857,-31.06,-31.06,13.19,344.7,-84.89,-126.75
52.40256,-1.501301,143.04,7.56,4,48.73,19 / 20,59027,2019-09-07 09:14:24:306,-2.0222,-7.1182,9.4796,-0.0149,-0.0049,9.8066,0.0223,-0.8091,0.1689,-31,-31.31,15.25,347.99,-84.88,-126.82
52.40256,-1.501301,143.04,7.56,4,48.73,19 / 20,59127,2019-09-07 09:14:24:406,-5.1845,-5.1083,10.319,-0.0313,0.0229,9.8065,0.0985,-0.7965,-0.0478,-31,-31.19,16.13,349.36,-84.78,-127.04
52.40256,-1.501301,143.04,7.56,4,48.73,19 / 20,59227,2019-09-07 09:14:24:506,-2.4015,-5.4353,9.2241,-0.0192,0.0368,9.8065,0.0599,-0.8981,0.0287,-30.69,-31.25,17.75,352.92,-85.17,-126.68
52.40256,-1.501301,143.04,7.56,4,48.73,19 / 20,59327,2019-09-07 09:14:24:606,-3.4334,-5.0463,9.4261,0.0131,-0.0082,9.8066,-0.1592,-0.73,0.0484,-29.87,-30.94,19.44,354.23,-85.01,-127.66
52.40256,-1.501301,143.04,7.56,4,48.73,19 / 20,59427,2019-09-07 09:14:24:706,-3.0307,-4.3764,9.4894,0.0164,-0.0012,9.8066,-0.1135,-0.7419,-0.0172,-28.87,-30.87,20.69,357.19,-85.07,-128.5
52.40256,-1.501301,143.04,7.56,4,48.73,19 / 20,59528,2019-09-07 09:14:24:807,-4.022,-4.7646,9.4616,0.0042,-0.0096,9.8066,-0.0833,-0.8003,0.0331,-28.87,-31.31,21.44,357.52,-85.13,-128.19
52.40256,-1.501301,143.04,7.56,4,48.73,19 / 20,59627,2019-09-07 09:14:24:906,-6.1936,-3.708,10.0291,0.0292,-0.029,9.8065,-0.1831,-0.8787,0.1502,-28.31,-30.81,22.94,2.88,-85.16,-126.74
52.40256,-1.501301,143.04,7.56,4,48.73,19 / 20,59727,2019-09-07 09:14:25:006,-4.3781,-4.7377,10.044,-0.0162,-0.0031,9.8066,0.0763,-0.8214,0.1353,-28.06,-31.37,23.94,2.49,-84.83,-128.31
52.40256,-1.501301,143.04,7.56,4,48.73,19 / 20,59828,2019-09-07 09:14:25:107,-4.7119,-5.1659,9.5244,-0.0154,-0.0265,9.8065,0.0119,-0.7414,0.078,-26.62,-30.94,26.13,6.73,-84.46,-127.75
52.40256,-1.501301,143.04,7.56,4,48.73,19 / 20,59927,2019-09-07 09:14:25:206,-4.8745,-3.9105,10.3747,0.0189,-0.016,9.8066,-0.0701,-0.8682,0.082,-25.5,-30.81,27.31,10.69,-84.22,-127.47
52.40256,-1.501301,143.04,7.56,4,48.73,19 / 20,60027,2019-09-07 09:14:25:306,-6.4823,-4.0512,9.889,0.0237,-0.0136,9.8066,-0.0611,-0.814,0.0341,-24.75,-31.19,27.69,10.19,-84.1,-128.96
52.40256,-1.501301,143.04,7.56,4,48.73,18 / 19,60127,2019-09-07 09:14:25:406,-5.4794,-4.6946,10.126,-0.0308,0.0186,9.8066,-0.214,-0.7826,0.0446,-23.87,-31.31,29.56,14.95,-84.16,-127.68
52.40256,-1.501301,143.04,7.56,4,48.73,18 / 19,60227,2019-09-07 09:14:25:506,-4.5478,-3.1117,9.6535,-0.0074,0.0076,9.8066,-0.0891,-0.821,0.0682,-22.94,-31.25,30.31,14.6,-84,-129.24
52.40256,-1.501301,143.04,7.56,4,48.73,18 / 19,60327,2019-09-07 09:14:25:606,-5.5798,-2.1562,10.253,0.0035,-0.0148,9.8066,-0.0455,-0.7462,0.0747,-21.44,-31,30.56,18.43,-83.84,-129.17
52.40256,-1.501301,143.04,7.56,4,48.73,18 / 19,60428,2019-09-07 09:14:25:707,-4.7363,-2.5316,9.504,0.015,-0.0083,9.8065,-0.0538,-0.8724,0.1149,-20,-31.19,30.69,20.02,-83.8,-129.04
52.40256,-1.501301,143.04,7.56,4,48.73,18 / 19,60527,2019-09-07 09:14:25:806,-6.6605,-2.0608,10.2478,-0.0068,-0.0047,9.8066,-0.0112,-0.8311,0.0412,-18.81,-30.94,32.06,21.42,-83.6,-129.95
52.40256,-1.501301,143.04,7.56,4,48.73,18 / 19,60627,2019-09-07 09:14:25:906,-5.4951,-1.4542,9.8907,0.0143,-0.0032,9.8066,-0.0431,-0.8724,0.0678,-17.62,-30.75,32.5,22.84,-83.41,-130.79
52.40256,-1.501301,143.04,7.56,4,48.73,18 / 19,60727,2019-09-07 09:14:26:006,-6.8157,-1.661,9.5431,0.003,-0.0128,9.8066,-0.0618,-0.834,0.1074,-15.69,-31.75,32.75,24.45,-83.28,-132.25
52.40256,-1.501301,143.04,7.56,4,48.73,18 / 19,60827,2019-09-07 09:14:26:106,-5.9522,-0.6704,9.9289,-0.0113,0.011,9.8065,-0.0215,-0.8125,0.0396,-14.87,-31,32.94,25.98,-83.1,-132.32
52.40256,-1.501301,143.04,7.56,4,48.73,18 / 19,60927,2019-09-07 09:14:26:206,-6.0668,-1.2813,9.489,-0.0003,0.0118,9.8066,-0.0466,-0.8707,0.0469,-12.69,-31.94,33.13,29.78,-83.05,-132.02
52.40256,-1.501301,143.04,7.56,4,48.73,18 / 19,61028,2019-09-07 09:14:26:307,-7.2428,-1.1627,10.1363,-0.0116,-0.0026,9.8066,-0.0548,-0.7668,0.0316,-12.06,-31.25,32.13,30.92,-82.91,-132.02
52.40256,-1.501301,143.04,7.56,4,48.73,18 / 19,61127,2019-09-07 09:14:26:406,-5.6852,-0.8012,9.9969,-0.0098,0.0072,9.8066,-0.0617,-0.8226,0.0628,-10.37,-32.19,32.44,35.13,-82.82,-131.68
52.40256,-1.501301,143.04,7.56,4,48.73,18 / 20,61227,2019-09-07 09:14:26:506,-7.2817,-0.6208,10.4415,-0.0159,0.0169,9.8065,0.0507,-0.8165,0.035,-10.06,-32.25,32.38,36.17,-82.74,-130.79
52.40256,-1.501301,143.04,7.56,4,48.73,18 / 20,61327,2019-09-07 09:14:26:606,-6.9809,0.8952,10.1822,0.0169,0.03,9.8065,0.0314,-0.8116,-0.0239,-7.5,-32.37,31.31,39.14,-83,-132.8
52.40256,-1.501301,143.04,7.56,4,48.73,18 / 20,61427,2019-09-07 09:14:26:706,-7.1709,0.5655,10.9634,-0.0109,0.0158,9.8066,0.1977,-0.8811,0.1682,-6.94,-32.87,30.69,38.95,-83,-133.11
52.40256,-1.501301,143.04,7.56,4,48.73,18 / 20,61527,2019-09-07 09:14:26:806,-6.7397,1.8191,10.9545,0.0077,-0.0008,9.8066,-0.0457,-0.7979,0.0811,-5.5,-32.75,30.63,43.06,-82.71,-133.26
52.40256,-1.501301,143.04,7.56,4,48.73,18 / 20,61627,2019-09-07 09:14:26:906,-5.3607,1.1516,10.1292,0.015,0.0227,9.8066,-0.018,-0.7059,0.0083,-4.44,-33.44,29.44,42.57,-82.84,-135.27
52.40256,-1.501301,143.04,7.56,4,48.73,18 / 20,61727,2019-09-07 09:14:27:006,-5.129,2.0196,9.5045,-0.0181,-0.0809,9.8062,-0.2455,-0.7781,0.0001,-3.31,-32.87,28.81,43.96,-82.88,-135.96
52.40256,-1.501301,143.04,7.56,4,48.73,18 / 20,61827,2019-09-07 09:14:27:106,-6.8493,0.9626,9.5133,0.011,-0.0628,9.8064,-0.2276,-0.7935,0.0311,-2.69,-33.37,28.13,42.01,-82.47,-138.05
52.40256,-1.501301,143.04,7.56,4,48.73,18 / 20,61927,2019-09-07 09:14:27:206,-5.9723,0.6617,9.4545,0.0174,0.0374,9.8065,0.0164,-0.8571,0.0398,-1.19,-33.44,26.13,46.49,-82.86,-138.12
52.40256,-1.501301,143.04,7.56,4,48.73,18 / 20,62027,2019-09-07 09:14:27:306,-6.6421,1.3041,9.7467,-0.0085,0.0055,9.8066,-0.0746,-0.8426,0.0536,-1,-33.37,25.31,46.74,-82.79,-138.15
52.40256,-1.501301,143.04,7.56,4,48.73,18 / 20,62127,2019-09-07 09:14:27:406,-4.9582,0.9043,9.3158,0.0168,-0.0017,9.8066,-0.0224,-0.6583,0.0368,0.06,-34.44,23.94,49.63,-82.8,-138.41
52.40256,-1.501301,143.04,7.56,4,48.73,19 / 20,62227,2019-09-07 09:14:27:506,-6.3217,0.9862,10.0728,0.0114,-0.0134,9.8065,-0.0322,-0.8714,0.0873,0.94,-33.69,23.63,50.46,-82.9,-139.94
52.40256,-1.501301,143.04,7.56,4,48.73,19 / 20,62327,2019-09-07 09:14:27:606,-7.197,2.3192,10.4183,0.0093,-0.0108,9.8066,-0.1161,-0.7933,0.0195,0.81,-33.94,21.19,51,-82.93,-140.89
52.40256,-1.501301,143.04,7.56,4,48.73,19 / 20,62427,2019-09-07 09:14:27:706,-6.286,1.7769,9.1883,0.0186,0.0083,9.8065,-0.058,-0.8032,0.0278,2.5,-34.5,20,55.7,-83.22,-142.5
52.40256,-1.501301,143.04,7.56,4,48.73,19 / 20,62527,2019-09-07 09:14:27:806,-7.2713,2.5669,9.7609,0.0155,-0.0088,9.8066,-0.1133,-0.8337,0.0696,2.13,-34.62,18.69,52.38,-83.49,-143.32
52.40256,-1.501301,143.04,7.56,4,48.73,19 / 20,62627,2019-09-07 09:14:27:906,-6.136,1.3881,9.7839,0.0105,0.0077,9.8066,-0.1864,-0.8758,0.0762,2.94,-35.19,17.06,56.68,-83.8,-144.06
52.40256,-1.501301,143.04,7.56,4,48.73,19 / 20,62729,2019-09-07 09:14:28:008,-5.2681,2.6429,10.1147,0.029,0.0189,9.8066,0.0086,-0.7428,-0.2013,2.56,-34.75,15.25,58.59,-84.12,-144.44
52.40256,-1.501301,143.04,7.56,4,48.73,19 / 20,62827,2019-09-07 09:14:28:106,-3.1404,3.6325,8.6188,-0.0081,-0.0291,9.8066,-0.1213,-0.6911,0.1051,2.94,-34.25,14.25,56.36,-84.21,-147.41
52.40256,-1.501301,143.04,7.56,4,48.73,19 / 20,62927,2019-09-07 09:14:28:206,-5.512,2.9089,9.2359,-0.0461,-0.022,9.8064,-0.147,-0.755,0.156,3.31,-34.94,11.75,61.59,-83.69,-148.54
52.40256,-1.501301,143.04,7.56,4,48.73,19 / 20,63027,2019-09-07 09:14:28:306,-6.0265,3.7334,9.6514,-0.0133,-0.0114,9.8065,-0.0869,-0.7416,0.0803,2.63,-35.12,11.56,63.49,-83.46,-147.55
52.40256,-1.501301,143.04,7.56,4,48.73,19 / 20,63127,2019-09-07 09:14:28:406,-5.335,3.7682,10.3627,-0.0277,0.0065,9.8066,-0.0582,-0.8341,0.132,2.06,-35.56,10.31,66.95,-83.45,-146.38
52.40256,-1.501301,143.04,7.56,4,48.73,19 / 20,63227,2019-09-07 09:14:28:506,-3.6481,6.1869,9.5874,-0.0111,0.0016,9.8066,-0.0729,-0.8328,0.0467,1.31,-35.06,7.31,79.95,-83.25,-143.45
52.40256,-1.501301,143.04,7.56,4,48.73,19 / 20,63327,2019-09-07 09:14:28:606,-4.9124,5.2679,10.2577,-0.0178,0.0164,9.8066,-0.0031,-0.7816,0.1211,0.69,-35.75,7,81.1,-83.32,-143.19
52.40256,-1.501301,143.04,7.56,4,48.73,19 / 20,63427,2019-09-07 09:14:28:706,-3.5525,6.3985,9.9107,-0.0123,0.0058,9.8065,-0.0194,-0.8525,0.1399,-0.06,-35.37,5.06,96.41,-83.09,-141.01
52.40256,-1.501301,143.04,7.56,4,48.73,19 / 20,63527,2019-09-07 09:14:28:806,-3.1062,6.9947,9.3763,-0.0138,-0.0095,9.8066,0.0201,-0.8401,0.0945,-1.06,-36.37,3.88,108.48,-83.14,-141.89
52.40256,-1.501301,143.04,7.56,4,48.73,19 / 20,63627,2019-09-07 09:14:28:906,1.6984,5.2955,9.2283,-0.0309,0.0244,9.8065,-0.1019,-0.8417,0.17,-1.19,-36.31,1.81,167.99,-83.07,-141.5
52.40256,-1.501301,143.04,7.56,4,48.73,19 / 20,63728,2019-09-07 09:14:29:007,7.3129,3.0978,11.3021,0.0151,0.0077,9.8066,0.0903,-0.9168,0.1774,-2.5,-36.75,1.38,199.36,-83,-139.36
52.40256,-1.501301,143.04,7.56,4,48.73,19 / 20,63827,2019-09-07 09:14:29:106,5.5327,-2.4117,10.5263,-0.013,-0.0016,9.8066,-0.1755,-0.6663,0.0081,-3.81,-37,0.06,238.14,-83.08,-140.02
52.40256,-1.501301,143.04,7.56,4,48.73,19 / 20,63927,2019-09-07 09:14:29:206,5.0012,-2.2558,8.8229,0.0262,0.0265,9.8065,-0.1707,-0.6454,0.0565,-4.87,-36.87,0,251.38,-83.07,-140.35
52.40256,-1.501301,143.04,7.56,4,48.73,19 / 20,64027,2019-09-07 09:14:29:306,4.8945,-4.0205,8.7655,-0.0116,0.0136,9.8066,0.0416,-0.6164,0.0016,-6.31,-36.69,-0.75,253.94,-82.92,-140.22
52.40256,-1.501301,143.04,7.56,4,48.73,19 / 20,64128,2019-09-07 09:14:29:407,5.6099,-5.1533,10.1819,0.0078,-0.0005,9.8066,-0.0724,-0.6846,0.0467,-6.5,-36.5,-1,255.64,-82.97,-140.03
52.40256,-1.501301,143.04,7.56,4,48.73,19 / 20,64227,2019-09-07 09:14:29:506,3.8327,-6.374,9.7743,-0.0138,-0.0044,9.8066,-0.1721,-0.8406,0.0326,-8.62,-36,-2.06,271.54,-83.3,-138.62
52.40256,-1.501301,143.04,7.56,4,48.73,19 / 20,64327,2019-09-07 09:14:29:606,3.6137,-3.9347,9.7964,-0.0054,-0.0077,9.8066,-0.1045,-0.7178,-0.0109,-8.37,-35.87,-3.25,263.04,-83.51,-138.05
52.40256,-1.501301,143.04,7.56,4,48.73,19 / 20,64428,2019-09-07 09:14:29:707,4.4623,-4.9135,9.5573,0.0011,0.003,9.8066,-0.1063,-0.8308,0.0885,-9.87,-35.37,-3.75,269.72,-83.6,-137.09
52.40256,-1.501301,143.04,7.56,4,48.73,19 / 20,64527,2019-09-07 09:14:29:806,3.5259,-4.5367,10.0757,-0.0171,-0.0121,9.8066,-0.113,-0.7498,0.0402,-10.69,-35.06,-4.75,270.19,-83.66,-136.57
52.40256,-1.501301,143.04,7.56,4,48.73,19 / 20,64627,2019-09-07 09:14:29:906,3.8146,-5.1863,10.1428,-0.0227,-0.0151,9.8065,-0.0724,-0.7782,0.05,-12.81,-34.19,-5.62,275.32,-83.83,-135.05
52.40256,-1.501301,143.04,7.56,4,48.73,19 / 20,64727,2019-09-07 09:14:30:006,4.1267,-5.8981,8.9873,-0.0201,0.0091,9.8066,-0.1877,-0.8019,0.0737,-14,-34.5,-5.87,278.18,-84.14,-135.47
52.40256,-1.501301,143.04,7.56,4,48.73,19 / 20,64827,2019-09-07 09:14:30:106,1.9335,-6.2708,9.0271,-0.0097,-0.0457,9.8065,0.0474,-0.8105,0.1327,-15.44,-34.81,-6.06,282.65,-84.37,-133.47
52.40256,-1.501301,143.04,7.56,4,48.73,19 / 20,64927,2019-09-07 09:14:30:206,2.4967,-6.8882,10.0756,-0.009,0.0017,9.8065,-0.0944,-0.7992,0.0319,-16.62,-34,-5.87,290.61,-84.24,-129.6
52.40256,-1.501301,143.04,7.56,4,48.73,19 / 20,65027,2019-09-07 09:14:30:306,2.2009,-5.2715,9.0917,-0.0097,-0.0046,9.8066,-0.1315,-0.9499,0.0614,-18.19,-33.81,-5.87,294.46,-84.45,-127.88
52.40256,-1.501301,143.04,7.56,4,48.73,18 / 19,65128,2019-09-07 09:14:30:407,2.875,-6.5762,9.6322,0.008,-0.0307,9.8066,-0.05,-0.9571,0.0801,-19.56,-33.31,-5.87,299.91,-84.33,-125.47
52.40256,-1.501301,143.04,7.56,4,48.73,18 / 19,65227,2019-09-07 09:14:30:506,0.9183,-5.8698,10.4871,-0.0047,-0.0081,9.8066,0.1081,-0.7572,0.026,-21.25,-33.31,-5.69,302.49,-84.12,-123.89
52.40256,-1.501301,143.04,7.56,4,48.73,18 / 19,65327,2019-09-07 09:14:30:606,1.4541,-5.6465,9.6183,0.0089,0.0204,9.8066,-0.0075,-0.8183,0.0161,-22.44,-32.81,-4.62,306.67,-84.2,-123.55
52.40256,-1.501301,143.04,7.56,4,48.73,18 / 19,65427,2019-09-07 09:14:30:706,-0.019,-7.1158,10.3221,0.0141,-0.0113,9.8065,-0.1879,-0.7734,0.0236,-23.87,-32.62,-4.5,311.83,-84.24,-122.72
52.40256,-1.501301,143.04,7.56,4,48.73,18 / 19,65527,2019-09-07 09:14:30:806,-0.3723,-6.9799,9.9849,-0.0403,0.0141,9.8065,-0.1648,-0.8376,-0.0043,-24.31,-32.75,-3.31,315.97,-84.37,-121.42
52.40256,-1.501301,143.04,7.56,4,48.73,18 / 19,65627,2019-09-07 09:14:30:906,-0.4786,-6.4175,10.0969,-0.0146,-0.0105,9.8066,-0.0412,-0.8451,0.0831,-25.75,-32.25,-3.37,318.8,-84.63,-120.16
52.40256,-1.501301,143.04,7.56,4,48.73,18 / 19,65727,2019-09-07 09:14:31:006,1.776,-7.0505,9.7401,0.0101,-0.0031,9.8066,-0.057,-0.8518,-0.0058,-26.37,-32.69,-1.94,321.08,-84.6,-120.1
52.40256,-1.501301,143.04,7.56,4,48.73,18 / 19,65827,2019-09-07 09:14:31:106,1.5773,-7.233,9.4272,0.0042,0.0034,9.8066,-0.1488,-0.7934,-0.0106,-28.19,-32.06,-0.62,323.34,-84.54,-120.76
52.40256,-1.501301,143.04,7.56,4,48.73,18 / 19,65927,2019-09-07 09:14:31:206,-0.2137,-5.5332,9.4467,-0.0224,0.0089,9.8066,-0.0477,-0.7816,0.0541,-28.12,-32.25,0.69,326.94,-84.49,-121.55
52.40256,-1.501301,143.04,7.56,4,48.73,18 / 19,66027,2019-09-07 09:14:31:306,-0.8168,-6.4534,9.5613,0.0033,0.0164,9.8066,-0.0464,-0.8238,-0.0106,-29.19,-32.25,1.56,327.3,-84.45,-123.22
52.40256,-1.501301,143.04,7.56,4,48.73,18 / 19,66127,2019-09-07 09:14:31:406,-0.0665,-7.2101,10.1274,0.0429,-0.0008,9.8065,-0.154,-0.7908,0.0125,-30.12,-32.56,3,329.56,-84.61,-123.05
52.40256,-1.501301,143.04,7.56,4,48.73,18 / 20,66227,2019-09-07 09:14:31:506,-1.1146,-6.7845,10.0602,0.006,-0.0025,9.8065,-0.0478,-0.8208,0.0751,-30.62,-32.31,4.88,330.51,-84.51,-125.78
52.40256,-1.501301,143.04,7.56,4,48.73,18 / 20,66327,2019-09-07 09:14:31:606,-1.2811,-7.3287,10.2044,0.0311,-0.0052,9.8065,-0.3445,-0.6669,-0.0351,-31.12,-32.12,6,332.08,-84.54,-126.17
52.40256,-1.501301,143.04,7.56,4,48.73,18 / 20,66427,2019-09-07 09:14:31:706,-3.9669,-7.149,9.646,0.0761,-0.0102,9.8063,-0.1739,-0.7835,0.0833,-30.25,-32.25,7.63,333.56,-84.43,-128.7
52.40256,-1.501301,143.04,7.56,4,48.73,18 / 20,66527,2019-09-07 09:14:31:806,-2.1652,-6.0245,9.9188,-0.0493,0.0281,9.8065,-0.1347,-0.7191,0.0633,-31.44,-31.25,8.75,336.4,-84.52,-127.58
52.40256,-1.501301,143.04,7.56,4,48.73,18 / 20,66627,2019-09-07 09:14:31:906,-2.2572,-4.7105,10.1292,-0.026,0.0153,9.8065,-0.0006,-0.8444,0.1063,-31.31,-31.25,10.38,339.94,-84.84,-126.19
52.40256,-1.501301,143.04,7.56,4,48.73,18 / 20,66727,2019-09-07 09:14:32:006,-2.9805,-6.1623,10.1115,0.0325,-0.0146,9.8066,0.0305,-0.8983,0.07,-31.25,-31.25,12.06,341.06,-84.69,-128.42
52.40256,-1.501301,143.04,7.56,4,48.73,18 / 20,66827,2019-09-07 09:14:32:106,-3.3566,-5.7132,9.4941,0.0296,0.0008,9.8066,0.0113,-0.7816,-0.0433,-31,-31.56,14.56,345.21,-84.87,-129.34
52.40256,-1.501301,143.04,7.56,4,48.73,18 / 20,66927,2019-09-07 09:14:32:206,-3.156,-6.2314,10.2367,-0.0017,-0.0126,9.8066,-0.0582,-0.8289,0.0371,-31.37,-32.06,15,346.38,-84.89,-128.27
52.40256,-1.501301,143.04,7.56,4,48.73,18 / 20,67027,2019-09-07 09:14:32:306,-4.4739,-5.166,9.8547,0.0048,0.0013,9.8066,-0.0238,-0.7968,0.0276,-30.94,-31.06,17.81,351.21,-84.8,-128.21
52.40256,-1.501301,143.04,7.56,4,48.73,19 / 20,67127,2019-09-07 09:14:32:406,-3.6918,-5.4505,10.2409,-0.0088,0.0062,9.8066,0.0037,-0.7752,0.0827,-31.06,-31.12,18,350.36,-84.83,-128.99
52.40261,-1.501183,143.29,8.12,4,102.53,19 / 20,67227,2019-09-07 09:14:32:506,-2.315,-6.5991,9.3214,0.0302,-0.0144,9.8066,-0.1803,-0.7684,0.0333,-29.81,-31.19,19.88,354.54,-84.7,-128.69
52.40261,-1.501183,143.29,8.12,4,102.53,19 / 20,67327,2019-09-07 09:14:32:606,-5.0725,-3.7239,9.6334,-0.0069,-0.0263,9.8065,-0.1485,-0.6942,0.0317,-30.19,-31,21.88,356.9,-84.57,-129.1
52.40261,-1.501183,143.29,8.12,4,102.53,19 / 20,67427,2019-09-07 09:14:32:706,-5.1559,-5.4959,10.1411,-0.0186,-0.0029,9.8066,-0.0039,-0.7764,0.0197,-28.69,-30.87,23.06,358.88,-84.66,-129.44
52.40261,-1.501183,143.29,8.12,4,102.53,19 / 20,67527,2019-09-07 09:14:32:806,-4.5386,-4.7331,10.1815,0.0014,0.0088,9.8066,-0.0381,-0.8283,0.09,-28.12,-30.87,23.63,2.01,-84.69,-128.75
52.40261,-1.501183,143.29,8.12,4,102.53,19 / 20,67627,2019-09-07 09:14:32:906,-4.8533,-4.418,9.8255,0.014,-0.0058,9.8066,-0.0735,-0.8831,0.0969,-26.94,-31.37,25.75,5.38,-84.56,-128.99
52.40261,-1.501183,143.29,8.12,4,102.53,19 / 20,67727,2019-09-07 09:14:33:006,-5.6063,-3.9403,9.3103,0.0135,-0.036,9.8066,-0.0884,-0.7202,0.0299,-26.25,-31.31,26.81,7.17,-84.32,-129.53
52.40261,-1.501183,143.29,8.12,4,102.53,19 / 20,67827,2019-09-07 09:14:33:106,-5.5025,-2.9802,10.0201,-0.0225,0.014,9.8066,-0.1163,-0.7208,0.0542,-25.62,-31.06,28.06,8.02,-84.13,-129.81
52.40261,-1.501183,143.29,8.12,4,102.53,19 / 20,67928,2019-09-07 09:14:33:207,-4.2967,-6.1666,10.0421,-0.0113,0.0229,9.8065,0.0452,-0.883,0.063,-24.37,-30.81,28.69,12.78,-84.09,-128.75
52.40261,-1.501183,143.29,8.12,4,102.53,19 / 20,68027,2019-09-07 09:14:33:306,-5.1164,-2.6341,9.0744,0.0043,-0.0023,9.8066,-0.0599,-0.7758,0.0437,-23.75,-30.94,29.69,12.13,-84.14,-130.27
52.40261,-1.501183,143.29,8.12,4,102.53,19 / 20,68127,2019-09-07 09:14:33:406,-6.1914,-2.7874,9.8664,0.0105,-0.0099,9.8066,-0.0482,-0.8268,0.1047,-21.81,-31.31,30.69,14.62,-84.08,-131.3
52.40261,-1.501183,143.29,8.12,4,102.53,18 / 19,68227,2019-09-07 09:14:33:506,-5.8875,-3.6855,10.5313,0.0003,-0.0103,9.8066,-0.005,-0.7251,0.0089,-21.25,-30.81,31.13,16.51,-83.9,-130.9
52.40261,-1.501183,143.29,8.12,4,102.53,18 / 19,68327,2019-09-07 09:14:33:606,-5.7698,-1.7846,10.0012,0.0077,0.0047,9.8066,-0.0557,-0.8097,0.0336,-19.12,-31.44,31.81,18.91,-83.95,-132.12
52.40261,-1.501183,143.29,8.12,4,102.53,18 / 19,68427,2019-09-07 09:14:33:706,-6.4812,-3.1488,10.5804,0.0008,-0.03,9.8065,-0.1012,-0.7716,0.0858,-18,-31.44,31.69,20.68,-83.85,-131.9
52.40261,-1.501183,143.29,8.12,4,102.53,18 / 19,68528,2019-09-07 09:14:33:807,-5.9924,-1.4199,9.8222,0.0168,-0.0117,9.8066,-0.0817,-0.7702,0.0651,-16.56,-30.62,32.56,21.07,-83.68,-133.69
